"Time (s)","Acceleration x (m/s^2)","Acceleration y (m/s^2)","Acceleration z (m/s^2)","Absolute acceleration (m/s^2)"
1.809071100E-2,3.511467278E-1,1.566700578E0,4.317250252E0,4.606137695E0
2.024235600E-2,3.846462369E-1,1.504487276E0,4.279563427E0,4.552592428E0
2.239473900E-2,4.175475538E-1,1.456630826E0,4.337589264E0,4.594649056E0
2.454701000E-2,4.893322289E-1,1.380658627E0,4.476971149E0,4.710513236E0
2.669905300E-2,6.227321029E-1,1.342971683E0,4.650450706E0,4.880374984E0
2.885121700E-2,9.900303483E-1,1.301097274E0,4.911866665E0,5.176818361E0
3.100311200E-2,1.185643673E0,1.196411371E0,5.090730190E0,5.362153015E0
3.316596900E-2,1.176072359E0,1.009172916E0,5.014758110E0,5.248749858E0
3.535778200E-2,1.219143152E0,8.368897438E-1,4.977669239E0,5.192676143E0
3.754538400E-2,1.309472203E0,6.735795736E-1,4.916652203E0,5.132435657E0
3.976999300E-2,1.453041553E0,5.485545993E-1,4.784449100E0,5.030228136E0
4.195277400E-2,1.591227055E0,4.468596280E-1,4.622933388E0,4.909501011E0
4.415163600E-2,1.792224169E0,3.308077157E-1,4.424329281E0,4.784996426E0
4.633838300E-2,2.002792597E0,2.243271172E-1,4.215555191E0,4.672516068E0
4.853726600E-2,2.227119684E0,1.316052526E-1,3.993022680E0,4.574014884E0
5.073394100E-2,2.509472847E0,5.862415582E-2,3.808775425E0,4.561541516E0
5.293093200E-2,2.824727058E0,-4.785645287E-3,3.677768469E0,4.637357736E0
5.512670300E-2,3.202194929E0,-6.400800496E-2,3.518047571E0,4.757605291E0
5.731672600E-2,3.555734396E0,-1.082752272E-1,3.454039574E0,4.958362633E0
5.949523300E-2,3.942773581E0,-1.519442350E-1,3.409173965E0,5.214500713E0
6.171521400E-2,4.377668858E0,-2.291127741E-1,3.451048374E0,5.579087037E0
6.390387400E-2,4.855635166E0,-3.014956415E-1,3.546163082E0,6.020246265E0
6.608753900E-2,5.347360611E0,-3.828516304E-1,3.678964853E0,6.501970722E0
6.830240200E-2,5.848656654E0,-4.833501875E-1,3.826721668E0,7.006012474E0
7.049409300E-2,6.354738712E0,-5.934200287E-1,3.969692707E0,7.516203272E0
7.268276400E-2,6.875775814E0,-7.184450030E-1,4.022335052E0,7.998227025E0
7.489110700E-2,7.410571575E0,-8.578268886E-1,4.070191383E0,8.498170152E0
7.708163900E-2,7.897511005E0,-1.015753269E0,4.313661098E0,9.055943179E0
7.926269900E-2,8.283951759E0,-1.171884894E0,4.719244480E0,9.605646226E0
8.147865200E-2,8.593822479E0,-1.357328653E0,5.076373100E0,1.007301791E1
8.367432000E-2,8.870193481E0,-1.557129383E0,5.352146149E0,1.047618503E1
8.587688600E-2,9.123234749E0,-1.781456470E0,5.569892883E0,1.083654494E1
8.806669600E-2,9.289535522E0,-2.033899307E0,5.739783287E0,1.110753478E1
9.025672900E-2,9.533005714E0,-2.287538528E0,5.781059742E0,1.138119863E1
9.243356700E-2,9.642477036E0,-2.580060959E0,5.711069584E0,1.150001712E1
9.465652900E-2,9.570692062E0,-2.876770973E0,5.578267574E0,1.144513114E1
9.685219800E-2,9.369695663E0,-3.145365477E0,5.434100151E0,1.127891685E1
9.905349100E-2,9.092127800E0,-3.379263878E0,5.380261898E0,1.109204356E1
1.012428720E-1,8.737990379E0,-3.627519131E0,5.392824173E0,1.089008372E1
1.034323770E-1,8.350951195E0,-3.841676712E0,5.410171986E0,1.066615332E1
1.056106310E-1,7.944170952E0,-4.012763500E0,5.398207664E0,1.040926362E1
1.078315360E-1,7.590631485E0,-4.127619267E0,5.295316696E0,1.013386925E1
1.100238380E-1,7.337590694E0,-4.161716938E0,5.059025288E0,9.836354098E0
1.122146040E-1,7.290332317E0,-4.059423447E0,4.465006828E0,9.463833789E0
1.144204250E-1,7.468597889E0,-3.864408493E0,3.437289715E0,9.084523543E0
1.166155440E-1,7.392625332E0,-3.811168194E0,3.517449379E0,9.030413193E0
1.188153530E-1,7.229315281E0,-3.851248026E0,4.119244099E0,9.168603096E0
1.210069010E-1,7.003791809E0,-3.850649834E0,5.041079044E0,9.449501668E0
1.232090690E-1,6.720840454E0,-3.726821184E0,5.717649937E0,9.578643607E0
1.254272090E-1,6.339185238E0,-3.497708559E0,5.484349728E0,9.082803894E0
1.275913450E-1,6.000600815E0,-3.317648649E0,5.026721954E0,8.501878399E0
1.298053930E-1,5.761917114E0,-3.256033421E0,4.938187599E0,8.257550438E0
1.320010420E-1,5.661418438E0,-3.259024382E0,5.248656273E0,8.379814516E0
1.341899250E-1,5.823532104E0,-3.329612732E0,5.426921844E0,8.628518287E0
1.363742620E-1,6.306283951E0,-3.601796389E0,4.781457901E0,8.695084482E0
1.385545190E-1,6.914061069E0,-3.769891977E0,3.963710785E0,8.816310406E0
1.407715180E-1,7.478168964E0,-3.844667673E0,3.595216036E0,9.144947180E0
1.429677070E-1,8.018348694E0,-3.903291941E0,3.537189960E0,9.593816580E0
1.451691840E-1,8.519644737E0,-3.961317778E0,3.603590965E0,1.006291473E1
1.473614540E-1,9.002396584E0,-3.975674868E0,3.760320902E0,1.053513874E1
1.495571020E-1,9.474979401E0,-3.966701746E0,3.830909014E0,1.096292941E1
1.517518350E-1,9.986445427E0,-3.861417532E0,3.982254982E0,1.142357179E1
1.539476370E-1,1.051226807E1,-3.621536970E0,4.406383038E0,1.195991310E1
1.561440570E-1,1.096570778E1,-3.317648649E0,5.064409256E0,1.252604410E1
1.583340900E-1,1.134317589E1,-3.008974552E0,5.682953835E0,1.303907709E1
1.605108690E-1,1.167278671E1,-2.629113913E0,6.233901024E0,1.349176458E1
1.627322840E-1,1.197428226E1,-2.154138565E0,6.602993965E0,1.384280600E1
1.649294880E-1,1.219442272E1,-1.545763373E0,6.912864685E0,1.410251850E1
1.671314030E-1,1.240080357E1,-8.811569214E-1,6.959524632E0,1.424750328E1
1.693142030E-1,1.258325577E1,-2.117647976E-1,7.015756130E0,1.440846987E1
1.714843690E-1,1.271785259E1,3.960121572E-1,7.200601578E0,1.462016632E1
1.736861920E-1,1.281416321E1,9.960124493E-1,7.619943619E0,1.494183256E1
1.759079940E-1,1.280937767E1,1.620539188E0,8.143373489E0,1.526501999E1
1.781106310E-1,1.278126240E1,2.109273195E0,8.361120224E0,1.541810732E1
1.803069490E-1,1.281057453E1,2.430509567E0,8.536993027E0,1.558519960E1
1.824988130E-1,1.282014561E1,2.714657307E0,8.899505615E0,1.584066595E1
1.846937910E-1,1.282014561E1,2.916850805E0,9.152546883E0,1.601977735E1
1.868886260E-1,1.277707481E1,3.103491068E0,9.151350021E0,1.601975358E1
1.890839890E-1,1.274357510E1,3.324826956E0,9.394221306E0,1.617728576E1
1.912739400E-1,1.275314617E1,3.449851990E0,9.604191780E0,1.633354572E1
1.934510740E-1,1.275793171E1,3.538386583E0,9.976874352E0,1.657778703E1
1.956722850E-1,1.279561901E1,3.601198196E0,1.017787075E1,1.674173072E1
1.978623600E-1,1.286261845E1,3.644867182E0,1.036510944E1,1.691648616E1
2.000469710E-1,1.293440247E1,3.727419376E0,1.055653572E1,1.710651539E1
2.022562000E-1,1.301516056E1,3.814159393E0,1.075274658E1,1.730791077E1
2.044270570E-1,1.314437294E1,3.929612875E0,1.091127110E1,1.752918236E1
2.066555460E-1,1.345065403E1,4.202394962E0,1.103689480E1,1.789953251E1
2.088435920E-1,1.376590824E1,4.153940201E0,1.108235836E1,1.815417626E1
2.110333910E-1,1.413380527E1,4.100699902E0,1.109492016E1,1.843034033E1
2.132355490E-1,1.460160160E1,4.013959885E0,1.107996559E1,1.876390899E1
2.154372390E-1,1.521356678E1,3.873979807E0,1.106620693E1,1.920732333E1
2.176342300E-1,1.590628815E1,3.724428415E0,1.105723381E1,1.972672779E1
2.198302850E-1,1.668934059E1,3.617349625E0,1.102552891E1,2.032686880E1
2.220249270E-1,1.752563095E1,3.563511133E0,1.105125141E1,2.102323737E1
2.242198530E-1,1.837627983E1,3.580859184E0,1.108175945E1,2.175581774E1
2.264141790E-1,1.917428589E1,3.632902861E0,1.123071289E1,2.251621937E1
2.286128270E-1,1.992922211E1,3.714258909E0,1.147537899E1,2.329493370E1
2.308023010E-1,2.059801483E1,3.814757586E0,1.173858929E1,2.401301874E1
2.329803200E-1,2.123331070E1,3.996612072E0,1.199163055E1,2.471083962E1
2.352026620E-1,2.188356018E1,4.311866283E0,1.219143105E1,2.541876055E1
2.373923070E-1,2.249612236E1,4.713262558E0,1.232363510E1,2.607992230E1
2.395750470E-1,2.311765862E1,5.185844898E0,1.246002579E1,2.676885074E1
2.417888840E-1,2.376312256E1,5.716453075E0,1.260598755E1,2.750045003E1
2.439850710E-1,2.439004135E1,6.261418819E0,1.279561901E1,2.824548369E1
2.461876660E-1,2.494038963E1,6.850052834E0,1.306959724E1,2.897862369E1
2.483772520E-1,2.544228554E1,7.467401028E0,1.337228966E1,2.969663453E1
2.505741320E-1,2.587299347E1,8.209774017E0,1.375992680E1,3.043267596E1
2.527727500E-1,2.621337128E1,9.048459053E0,1.418525124E1,3.114862433E1
2.549672990E-1,2.640001297E1,9.815957069E0,1.471885014E1,3.177984027E1
2.571590510E-1,2.647239494E1,1.054516983E1,1.518066502E1,3.228685322E1
2.593458600E-1,2.641556549E1,1.114457130E1,1.556052589E1,3.262075315E1
2.615530530E-1,2.628695107E1,1.174935722E1,1.591107464E1,3.289701335E1
2.637498110E-1,2.601058006E1,1.226321602E1,1.622752571E1,3.301922672E1
2.659483990E-1,2.556192589E1,1.278664589E1,1.649911118E1,3.300198536E1
2.681419720E-1,2.496970177E1,1.325324631E1,1.680359650E1,3.288609735E1
2.703393190E-1,2.425305176E1,1.357627773E1,1.703151321E1,3.259751952E1
2.725362900E-1,2.341676140E1,1.381316662E1,1.719123459E1,3.216654836E1
2.747296190E-1,2.245125580E1,1.370010567E1,1.722293854E1,3.143853359E1
2.769190510E-1,2.138525391E1,1.337707520E1,1.721157265E1,3.053708333E1
2.790957480E-1,2.033839417E1,1.309173107E1,1.717568016E1,2.966559773E1
2.813183030E-1,1.926282120E1,1.277288723E1,1.707338715E1,2.873505659E1
2.835141240E-1,1.819203186E1,1.240558910E1,1.683709717E1,2.771888355E1
2.857167290E-1,1.702134323E1,1.196590805E1,1.646680641E1,2.653421931E1
2.879074040E-1,1.576870155E1,1.158365440E1,1.603789330E1,2.529915057E1
2.901053910E-1,1.456511116E1,1.136231804E1,1.543609905E1,2.407317778E1
2.923074180E-1,1.343330669E1,1.129352474E1,1.467697620E1,2.287817869E1
2.944941550E-1,1.229671574E1,1.107159042E1,1.386042500E1,2.158473334E1
2.966902100E-1,1.120259762E1,1.077727318E1,1.296371460E1,2.024118837E1
2.988838650E-1,1.014257717E1,1.050209904E1,1.208076286E1,1.895021866E1
3.010820550E-1,9.091529846E0,1.022692394E1,1.118405342E1,1.767283054E1
3.032722510E-1,8.108079910E0,9.994820595E0,1.032144070E1,1.649756154E1
3.054499660E-1,7.157530785E0,9.777072906E0,9.516255379E0,1.540715801E1
3.076714830E-1,6.283552170E0,9.588040352E0,8.744570732E0,1.441808111E1
3.098663160E-1,5.471786976E0,9.437891006E0,8.069195747E0,1.356930947E1
3.120681800E-1,4.770092010E0,9.326025963E0,7.423133850E0,1.283867027E1
3.142579390E-1,4.096512318E0,9.223732948E0,6.801598549E0,1.217047269E1
3.164545130E-1,3.475574970E0,9.107083321E0,6.275775433E0,1.159327155E1
3.186509140E-1,2.878565550E0,8.982057571E0,5.816951752E0,1.108153534E1
3.208473250E-1,2.338984251E0,8.832506180E0,5.392824173E0,1.060973917E1
3.230386910E-1,1.841875196E0,8.673981667E0,5.107480049E0,1.023312341E1
3.252141870E-1,1.369292736E0,8.535198212E0,4.850849628E0,9.912381814E0
3.274349200E-1,9.152546525E-1,8.381459236E0,4.637290478E0,9.622422407E0
3.296303950E-1,4.851447940E-1,8.228917122E0,4.515256405E0,9.398828803E0
3.318333480E-1,7.836493850E-2,8.066802979E0,4.474578381E0,9.225036750E0
3.340226480E-1,-3.134597540E-1,7.914260864E0,4.405186653E0,9.063081788E0
3.362149500E-1,-6.717849374E-1,7.780860901E0,4.398007870E0,8.963010911E0
3.383987880E-1,-1.054636598E0,7.643273830E0,4.429114819E0,8.896569635E0
3.406122580E-1,-1.384247899E0,7.500302792E0,4.470390797E0,8.840536075E0
3.428077130E-1,-1.728814363E0,7.372286797E0,4.497310162E0,8.807111354E0
3.450070430E-1,-2.039881229E0,7.253243446E0,4.557728767E0,8.805881412E0
3.471989890E-1,-2.359921217E0,7.153941631E0,4.617549419E0,8.835715684E0
3.493948510E-1,-2.651845694E0,7.063612461E0,4.620540619E0,8.847389569E0
3.515909470E-1,-2.924029350E0,6.992425919E0,4.628317356E0,8.880613122E0
3.537870020E-1,-3.168097258E0,6.969096184E0,4.650450706E0,8.957222428E0
3.559831890E-1,-3.406781197E0,6.912266254E0,4.630111694E0,8.990190053E0
3.581755510E-1,-3.569493294E0,6.878767014E0,4.609772682E0,9.017134921E0
3.603572130E-1,-3.717848301E0,6.865008354E0,4.613361835E0,9.068287772E0
3.625717000E-1,-3.822534084E0,6.855436802E0,4.622334957E0,9.109048305E0
3.647605620E-1,-3.913461447E0,6.831508636E0,4.564309120E0,9.100418039E0
3.669430070E-1,-3.970889091E0,6.807580471E0,4.530211449E0,9.090320556E0
3.691645650E-1,-3.999603033E0,6.763911247E0,4.439284325E0,9.025218285E0
3.713809960E-1,-4.033102512E0,6.720840454E0,4.353142738E0,8.965794108E0
3.735446140E-1,-4.018745422E0,6.677171707E0,4.281956196E0,8.892136169E0
3.757661890E-1,-4.009174347E0,6.634100914E0,4.238885403E0,8.834756552E0
3.779564970E-1,-3.994817495E0,6.600003242E0,4.186841488E0,8.777713328E0
3.801460830E-1,-3.980460405E0,6.542575359E0,4.105485439E0,8.689324949E0
3.823353310E-1,-3.946960926E0,6.527021885E0,3.976871252E0,8.602093942E0
3.845309900E-1,-3.884747505E0,6.497709751E0,3.829114437E0,8.483726337E0
3.867271060E-1,-3.822534084E0,6.458228111E0,3.633501291E0,8.338033869E0
3.889232620E-1,-3.764508247E0,6.428318024E0,3.370888948E0,8.176655017E0
3.911143540E-1,-3.649652719E0,6.416952133E0,3.132802963E0,8.019457217E0
3.932926270E-1,-3.573082447E0,6.401398659E0,2.946761131E0,7.901153342E0
3.955131890E-1,-3.482155085E0,6.376274109E0,2.693720102E0,7.748445233E0
3.977078390E-1,-3.386442184E0,6.369693756E0,2.412563324E0,7.606671480E0
3.999096720E-1,-3.280559778E0,6.358926296E0,2.169093609E0,7.476829755E0
4.020994300E-1,-3.180061340E0,6.352345943E0,1.925624013E0,7.360238920E0
4.042897280E-1,-3.074777126E0,6.403791428E0,1.716252089E0,7.308099634E0
4.064664550E-1,-2.935993433E0,6.445665836E0,1.558923960E0,7.252372676E0
4.086882160E-1,-2.821137905E0,6.492924213E0,1.435095429E0,7.223322145E0
4.108852480E-1,-2.691925526E0,6.539584160E0,1.316650629E0,7.193482668E0
4.130879460E-1,-2.548356056E0,6.582056999E0,1.221535921E0,7.163081944E0
4.152760560E-1,-2.395215511E0,6.609574318E0,1.117448211E0,7.118442281E0
4.174717450E-1,-2.227717876E0,6.647261143E0,1.051645517E0,7.089059594E0
4.196676780E-1,-2.060818434E0,6.656234264E0,1.014556766E0,7.041431149E0
4.218642210E-1,-1.902892232E0,6.646663189E0,1.049252748E0,6.992857908E0
4.240545700E-1,-1.730608940E0,6.622136593E0,1.031306505E0,6.921798427E0
4.262343790E-1,-1.539781332E0,6.492924213E0,1.009771109E0,6.748972446E0
4.284538110E-1,-1.406381488E0,6.474380016E0,1.201795220E0,6.733484777E0
4.306444530E-1,-1.349551916E0,6.571887493E0,1.584646821E0,6.893627575E0
4.328295020E-1,-1.244267821E0,6.640082836E0,1.824527264E0,6.997699780E0
4.350402160E-1,-1.130010486E0,6.678966045E0,1.978266120E0,7.056844052E0
4.372298730E-1,-9.672985673E-1,6.760322094E0,2.108675003E0,7.147316392E0
4.394119000E-1,-8.093722463E-1,6.856633186E0,2.267199516E0,7.266959181E0
4.416287280E-1,-6.520441771E-1,7.010372162E0,2.449652195E0,7.454614365E0
4.438256580E-1,-5.276173949E-1,7.140182972E0,2.612364054E0,7.621354141E0
4.460316810E-1,-4.271188378E-1,7.269993305E0,2.756531715E0,7.786764428E0
4.482173610E-1,-3.122633696E-1,7.408777237E0,2.852244616E0,7.944985079E0
4.504130190E-1,-1.788634956E-1,7.537989616E0,2.958127022E0,8.099616971E0
4.526080990E-1,-2.093719877E-2,7.648657799E0,3.078366280E0,8.244922282E0
4.548041830E-1,1.417747438E-1,7.730013371E0,3.232105255E0,8.379720232E0
4.570003400E-1,2.943171859E-1,7.797610760E0,3.391227961E0,8.508218571E0
4.591963140E-1,4.570291340E-1,7.850851059E0,3.559323788E0,8.632121628E0
4.613935490E-1,6.287141442E-1,7.894520283E0,3.708875179E0,8.744969243E0
4.635916990E-1,7.956135273E-1,7.942376614E0,3.853640795E0,8.863684027E0
4.657867880E-1,9.726824164E-1,7.981259823E0,3.945764542E0,8.956320520E0
4.679809410E-1,1.168295622E0,8.043473244E0,4.028316975E0,9.071367820E0
4.701701800E-1,1.359721422E0,8.091329575E0,4.101297855E0,9.172736818E0
4.723475590E-1,1.593619823E0,8.157731056E0,4.155136585E0,9.292650869E0
4.745687500E-1,1.823330879E0,8.239086151E0,4.204787731E0,9.428006999E0
4.767582550E-1,2.053041935E0,8.315058708E0,4.225126743E0,9.550229238E0
4.789417050E-1,2.330011129E0,8.434102058E0,4.260420799E0,9.732122830E0
4.811583090E-1,2.626721144E0,8.544171333E0,4.300500393E0,9.919517698E0
4.833543850E-1,2.951546669E0,8.687142372E0,4.326223373E0,1.014368173E1
4.855563400E-1,3.310470104E0,8.844470978E0,4.375874519E0,1.040827349E1
4.877403710E-1,3.664009571E0,8.997013092E0,4.406980991E0,1.066736576E1
4.899088690E-1,4.037290096E0,9.158528328E0,4.413561344E0,1.093882426E1
4.920982510E-1,4.419543266E0,9.305686951E0,4.344169617E0,1.118033908E1
4.943086790E-1,4.821537495E0,9.443274498E0,4.269991875E0,1.143046314E1
4.965296370E-1,5.246861935E0,9.571290970E0,4.191627026E0,1.169225847E1
4.987209920E-1,5.715256691E0,9.699306488E0,4.108476639E0,1.198416813E1
5.009092760E-1,6.184250355E0,9.831509590E0,4.010969162E0,1.228785607E1
5.031201010E-1,6.671787739E0,9.964311600E0,3.903890133E0,1.261113062E1
5.053247320E-1,7.192824841E0,1.013001442E1,3.821337700E0,1.299832847E1
5.075146130E-1,7.738388538E0,1.031007481E1,3.685544968E0,1.340759268E1
5.097059460E-1,8.321639061E0,1.049970531E1,3.541377544E0,1.385766370E1
5.118991430E-1,8.919246674E0,1.070788097E1,3.382254839E0,1.434054825E1
5.140979650E-1,9.550951958E0,1.094955635E1,3.227917671E0,1.488398200E1
5.162947740E-1,1.016291618E1,1.117747307E1,3.083152056E0,1.541838500E1
5.184906050E-1,1.077009487E1,1.141017437E1,2.958127022E0,1.596676355E1
5.206856230E-1,1.133001518E1,1.167159081E1,2.860619545E0,1.651600497E1
5.228817990E-1,1.187976646E1,1.192343521E1,2.787040234E0,1.706061991E1
5.250714260E-1,1.237747288E1,1.218544960E1,2.732603550E0,1.758277961E1
5.272488140E-1,1.279860973E1,1.242293739E1,2.681756020E0,1.803678463E1
5.294702900E-1,1.324307728E1,1.263230896E1,2.602792740E0,1.848590965E1
5.316621340E-1,1.364985657E1,1.279860973E1,2.509472847E0,1.887910086E1
5.338495420E-1,1.405603886E1,1.293081379E1,2.397608280E0,1.924907008E1
5.360540410E-1,1.446760368E1,1.302532959E1,2.251646042E0,1.959695581E1
5.382315410E-1,1.484985733E1,1.305284786E1,2.149353027E0,1.988755436E1
5.404548180E-1,1.524646759E1,1.305105305E1,2.056631088E0,2.017460015E1
5.426457360E-1,1.562872124E1,1.303131199E1,2.040479422E0,2.045080869E1
5.448477620E-1,1.599183178E1,1.300678539E1,2.038684845E0,2.071403838E1
5.470385680E-1,1.636451340E1,1.297268772E1,2.032104731E0,2.098135780E1
5.492346540E-1,1.668934059E1,1.292901897E1,2.067996979E0,2.121250180E1
5.514318780E-1,1.699980927E1,1.285723400E1,2.118844509E0,2.141941837E1
5.536273240E-1,1.727259064E1,1.283749390E1,2.154138565E0,2.162831361E1
5.558223220E-1,1.749213219E1,1.281835079E1,2.246860504E0,2.180213723E1
5.580116210E-1,1.774038696E1,1.283809185E1,2.363510609E0,2.202553324E1
5.601890400E-1,1.795035744E1,1.290030479E1,2.513062000E0,2.224744202E1
5.624104050E-1,1.820399666E1,1.300618744E1,2.711068153E0,2.253655467E1
5.646065720E-1,1.845225143E1,1.314497089E1,2.889333248E0,2.283909126E1
5.668026160E-1,1.869631958E1,1.334178066E1,3.090928555E0,2.317561901E1
5.689986610E-1,1.892543221E1,1.355294704E1,3.245265722E0,2.350289572E1
5.711772100E-1,1.910250092E1,1.376830196E1,3.441477060E0,2.379738315E1
5.734072210E-1,1.925085640E1,1.400818157E1,3.643072367E0,2.408519461E1
5.755928490E-1,1.938964081E1,1.424806213E1,3.781856298E0,2.435709101E1
5.777827500E-1,1.952363777E1,1.450708580E1,3.948755503E0,2.464184734E1
5.799534250E-1,1.963849449E1,1.476072502E1,4.116253376E0,2.490969713E1
5.821749210E-1,1.974856377E1,1.501017666E1,4.283750534E0,2.517263778E1
5.843710470E-1,1.988256073E1,1.525962830E1,4.417150497E0,2.544963056E1
5.865741410E-1,1.998784637E1,1.544626808E1,4.584648132E0,2.567333634E1
5.887639100E-1,2.012662888E1,1.560479259E1,4.747958183E0,2.590625115E1
5.909581950E-1,2.030310059E1,1.573460388E1,4.911268711E0,2.615175354E1
5.931475160E-1,2.054716873E1,1.577767467E1,5.047060966E0,2.639306700E1
5.953304800E-1,2.079063797E1,1.581177235E1,5.187639713E0,2.663032816E1
5.975467070E-1,2.105803490E1,1.576810265E1,5.256433010E0,2.682729921E1
5.997436050E-1,2.132543373E1,1.565803337E1,5.288137913E0,2.697985425E1
6.019448290E-1,2.163590240E1,1.550907993E1,5.276772022E0,2.713831528E1
6.041326650E-1,2.196551323E1,1.531705570E1,5.241477966E0,2.728679274E1
6.063114970E-1,2.231366920E1,1.505324745E1,5.173282623E0,2.740917630E1
6.085270940E-1,2.263370895E1,1.477448368E1,5.062614441E0,2.749909479E1
6.107213080E-1,2.293460655E1,1.445324707E1,4.970490932E0,2.756081110E1
6.129183400E-1,2.319183540E1,1.412184143E1,4.863411903E0,2.758514836E1
6.151151170E-1,2.344009018E1,1.378624725E1,4.709074974E0,2.759843887E1
6.173113040E-1,2.368355942E1,1.347398472E1,4.511068821E0,2.761899695E1
6.195086210E-1,2.392224503E1,1.317069435E1,4.308277130E0,2.764601687E1
6.217046660E-1,2.415135765E1,1.285843086E1,4.053441525E0,2.765967659E1
6.238974750E-1,2.434218407E1,1.248814106E1,3.764508247E0,2.761642835E1
6.260828490E-1,2.452404022E1,1.209930801E1,3.470789194E0,2.756570661E1
6.282911320E-1,2.461915398E1,1.164766216E1,3.133401155E0,2.741512318E1
6.304874610E-1,2.468555450E1,1.116251755E1,2.791825771E0,2.723550422E1
6.326865580E-1,2.473281288E1,1.064447117E1,2.444866419E0,2.703690388E1
6.348791350E-1,2.474716949E1,1.008275604E1,2.088335991E0,2.680383395E1
6.370693210E-1,2.472264290E1,9.488738060E0,1.784447432E0,2.654109030E1
6.392479390E-1,2.465504646E1,8.865407944E0,1.494915962E0,2.624312382E1
6.414689480E-1,2.455394936E1,8.209176064E0,1.243071318E0,2.591972660E1
6.436583100E-1,2.443371010E1,7.529016495E0,9.966106415E-1,2.558682300E1
6.458443140E-1,2.425604248E1,6.830312252E0,7.639086246E-1,2.521095632E1
6.480553830E-1,2.403051949E1,6.131010056E0,5.545366406E-1,2.480650443E1
6.502518660E-1,2.371945190E1,5.461019516E0,3.493520916E-1,2.434249740E1
6.524535980E-1,2.335993195E1,4.777270317E0,1.674975902E-1,2.384400947E1
6.546441790E-1,2.291486549E1,4.112663746E0,-1.495514158E-2,2.328100701E1
6.568443850E-1,2.243630219E1,3.442673683E0,-1.878365725E-1,2.269966829E1
6.590442550E-1,2.191466713E1,2.787638426E0,-4.043870270E-1,2.209495626E1
6.612100470E-1,2.135474586E1,2.155933142E0,-6.454638839E-1,2.147300264E1
6.634277490E-1,2.077089691E1,1.510469317E0,-9.056833982E-1,2.084542968E1
6.656201930E-1,2.015893173E1,8.931210637E-1,-1.175474167E0,2.021291501E1
6.678256790E-1,1.954158401E1,2.859423161E-1,-1.440479279E0,1.959668976E1
6.700099230E-1,1.891047668E1,-2.644068897E-1,-1.667797327E0,1.898572062E1
6.721873520E-1,1.826920128E1,-8.285148144E-1,-1.929213285E0,1.838945394E1
6.744108820E-1,1.761895180E1,-1.378265858E0,-2.146960020E0,1.780271093E1
6.765994710E-1,1.699263000E1,-1.899901152E0,-2.374278307E0,1.726256923E1
6.787810910E-1,1.637109375E1,-2.397608280E0,-2.678166628E0,1.676108029E1
6.809958540E-1,1.575853157E1,-2.904288530E0,-2.948555708E0,1.629294909E1
6.831919810E-1,1.514178181E1,-3.378067255E0,-3.248256683E0,1.585042795E1
6.853889610E-1,1.450588894E1,-3.851846218E0,-3.513859987E0,1.541443302E1
6.875608050E-1,1.388435364E1,-4.306482315E0,-3.775275946E0,1.501911363E1
6.897789750E-1,1.324367523E1,-4.717449665E0,-3.979264021E0,1.461108508E1
6.919645130E-1,1.257906818E1,-5.109274387E0,-4.150351048E0,1.419729041E1
6.941543530E-1,1.192403316E1,-5.477170944E0,-4.277768612E0,1.380149531E1
6.963683510E-1,1.126899815E1,-5.787041664E0,-4.392025948E0,1.340783586E1
6.985662380E-1,1.062353420E1,-6.058627129E0,-4.433900356E0,1.300868610E1
7.007666470E-1,1.001635551E1,-6.272784710E0,-4.470989227E0,1.263585970E1
7.029576870E-1,9.394820213E0,-6.458228111E0,-4.503890514E0,1.225791120E1
7.051573530E-1,8.825926781E0,-6.591030121E0,-4.517050743E0,1.190556210E1
7.073490650E-1,8.276175499E0,-6.695715904E0,-4.554139614E0,1.157876850E1
7.095464320E-1,7.735995770E0,-6.751947403E0,-4.548755646E0,1.123056553E1
7.117407980E-1,7.238886833E0,-6.789036274E0,-4.528416634E0,1.090866872E1
7.139368840E-1,6.789634228E0,-6.816553593E0,-4.497908592E0,1.062053283E1
7.161322270E-1,6.349953175E0,-6.811169624E0,-4.467998028E0,1.032845310E1
7.183285370E-1,5.938985825E0,-6.781259537E0,-4.389633179E0,1.002626117E1
7.205245710E-1,5.580660820E0,-6.751348972E0,-4.311268330E0,9.762762045E0
7.227207890E-1,5.227120876E0,-6.687939167E0,-4.232903481E0,9.485188181E0
7.249106900E-1,4.921437740E0,-6.601199627E0,-4.153940201E0,9.222342714E0
7.270891560E-1,4.648656368E0,-6.528218269E0,-4.051048756E0,8.979901771E0
7.293150990E-1,4.386044025E0,-6.441478729E0,-3.967299938E0,8.744684054E0
7.315297390E-1,4.152145386E0,-6.311069489E0,-3.893122435E0,8.498606455E0
7.336928490E-1,3.932604074E0,-6.186044693E0,-3.790230989E0,8.252173938E0
7.359142700E-1,3.726821184E0,-6.046662807E0,-3.696911097E0,8.007401507E0
7.381036930E-1,3.531208038E0,-5.877968788E0,-3.593421459E0,7.741616438E0
7.402956290E-1,3.359523058E0,-5.714658737E0,-3.514458179E0,7.503008460E0
7.424858550E-1,3.196810961E0,-5.551946640E0,-3.477967739E0,7.289716826E0
7.446839540E-1,3.049054146E0,-5.359922886E0,-3.422334671E0,7.052508712E0
7.468785960E-1,2.944368362E0,-5.178068161E0,-3.361915827E0,6.839895683E0
7.490731860E-1,2.834298372E0,-5.005186558E0,-3.348755360E0,6.655772096E0
7.512690570E-1,2.734398127E0,-4.823332310E0,-3.345764160E0,6.475770649E0
7.534645530E-1,2.639283419E0,-4.670191765E0,-3.327818155E0,6.312755481E0
7.556612600E-1,2.529213428E0,-4.512265205E0,-3.339184046E0,6.156915457E0
7.578511000E-1,2.429313183E0,-4.368695736E0,-3.326023579E0,6.004123401E0
7.600289050E-1,2.310270309E0,-4.215555191E0,-3.356531858E0,5.862982226E0
7.622512960E-1,2.214557409E0,-4.095914364E0,-3.376870871E0,5.751872380E0
7.644406270E-1,2.095514536E0,-4.014558315E0,-3.411566973E0,5.669801482E0
7.666237740E-1,1.990230203E0,-3.933202267E0,-3.441477060E0,5.592393109E0
7.688372740E-1,1.895115495E0,-3.875774384E0,-3.480360508E0,5.543103740E0
7.710271550E-1,1.799402595E0,-3.851846218E0,-3.505485058E0,5.510262650E0
7.732108510E-1,1.694716692E0,-3.837489367E0,-3.510869026E0,5.470337341E0
7.754257750E-1,1.584646821E0,-3.808177233E0,-3.531208038E0,5.429801985E0
7.776233360E-1,1.469791293E0,-3.827319860E0,-3.527020693E0,5.408191817E0
7.798298790E-1,1.345364571E0,-3.856033802E0,-3.541975737E0,5.405977676E0
7.820150190E-1,1.207179070E0,-3.860221148E0,-3.528815269E0,5.367599633E0
7.842096400E-1,1.039681435E0,-3.869194269E0,-3.506083488E0,5.323929301E0
7.864042710E-1,8.721838593E-1,-3.897907972E0,-3.478565931E0,5.296679354E0
7.886017200E-1,7.004988194E-1,-3.935595036E0,-3.436691523E0,5.271665344E0
7.907915800E-1,5.473581553E-1,-3.944568157E0,-3.418745279E0,5.248527239E0
7.929687540E-1,3.846462369E-1,-3.982254982E0,-3.343371391E0,5.213869938E0
7.951903530E-1,2.362912297E-1,-4.000799656E0,-3.262613773E0,5.167869974E0
7.973873130E-1,7.357929647E-2,-4.023531437E0,-3.129812002E0,5.098033180E0
7.995896240E-1,-6.041877344E-2,-4.036691666E0,-3.011367321E0,5.036552707E0
8.017787620E-1,-1.896311939E-1,-4.050450325E0,-2.883351326E0,4.975522354E0
8.039680120E-1,-2.901297510E-1,-4.044468403E0,-2.745165825E0,4.896716792E0
8.061464890E-1,-4.049852192E-1,-4.043870449E0,-2.593221426E0,4.820964489E0
8.083659820E-1,-5.246263742E-1,-4.037888050E0,-2.445464849E0,4.749744316E0
8.105562990E-1,-6.251249313E-1,-4.012763500E0,-2.288734913E0,4.661690636E0
8.127410120E-1,-7.304090858E-1,-4.007379532E0,-2.145763636E0,4.604008007E0
8.149569450E-1,-8.111668825E-1,-3.973282099E0,-2.021935225E0,4.531355691E0
8.171521240E-1,-9.068797827E-1,-3.962514400E0,-1.879562140E0,4.478471296E0
8.193523300E-1,-9.834501147E-1,-3.923630953E0,-1.798804402E0,4.426934748E0
8.215416010E-1,-1.040877819E0,-3.899104595E0,-1.703689694E0,4.380525294E0
8.237322230E-1,-1.074377418E0,-3.884149313E0,-1.622931957E0,4.344515031E0
8.259120330E-1,-1.117448211E0,-3.854837179E0,-1.536790371E0,4.297695292E0
8.281307520E-1,-1.136590719E0,-3.864408493E0,-1.479362607E0,4.291154295E0
8.303271030E-1,-1.131805062E0,-3.830310822E0,-1.408176184E0,4.234999865E0
8.325297800E-1,-1.118046403E0,-3.830310822E0,-1.355534077E0,4.214116916E0
8.347197720E-1,-1.094118118E0,-3.849453449E0,-1.307079315E0,4.209969436E0
8.369084320E-1,-1.055832982E0,-3.844069481E0,-1.235294700E0,4.173440602E0
8.390850070E-1,-1.003190875E0,-3.848855257E0,-1.177268744E0,4.148016444E0
8.413067160E-1,-9.463613629E-1,-3.853042603E0,-1.104885817E0,4.118532481E0
8.435012250E-1,-8.650053740E-1,-3.872185230E0,-1.027717352E0,4.098567519E0
8.456978910E-1,-7.836494446E-1,-3.876372576E0,-9.601200819E-1,4.069668459E0
8.478951460E-1,-6.837490797E-1,-3.871587038E0,-9.212366939E-1,4.037991585E0
8.500924520E-1,-5.593222976E-1,-3.895515203E0,-8.817551732E-1,4.033035125E0
8.522905420E-1,-4.636093974E-1,-3.909872293E0,-8.476574421E-1,4.027475408E0
8.544829350E-1,-3.541377485E-1,-3.938585997E0,-8.129615188E-1,4.037174709E0
8.566789290E-1,-2.344966233E-1,-3.963112593E0,-7.932206988E-1,4.048511969E0
8.588684430E-1,-1.531406492E-1,-4.006183147E0,-7.776673436E-1,4.083836672E0
8.610454040E-1,-5.802594870E-2,-4.034897327E0,-7.627122402E-1,4.106761914E0
8.632670850E-1,3.768695518E-2,-4.073182583E0,-7.519445419E-1,4.142180254E0
8.654630280E-1,1.190429255E-1,-4.130609989E0,-7.609176040E-1,4.201797913E0
8.676670990E-1,2.285145670E-1,-4.159922123E0,-7.692924738E-1,4.236623878E0
8.698610890E-1,3.337987661E-1,-4.207778454E0,-7.686942816E-1,4.290420962E0
8.720699300E-1,4.480560422E-1,-4.269991875E0,-7.579265833E-1,4.359820814E0
8.742472980E-1,5.437689424E-1,-4.308277130E0,-7.663014531E-1,4.409552631E0
8.764431600E-1,6.394818425E-1,-4.323232174E0,-7.657032609E-1,4.436842902E0
8.786347500E-1,7.489534616E-1,-4.366302967E0,-7.453642488E-1,4.492338005E0
8.808353720E-1,8.829515576E-1,-4.390231133E0,-7.680960894E-1,4.543534357E0
8.830318350E-1,1.026520967E0,-4.419543266E0,-7.908278704E-1,4.605596237E0
8.852241250E-1,1.183848977E0,-4.477569580E0,-8.422735929E-1,4.707393392E0
8.874000500E-1,1.351346612E0,-4.530211449E0,-8.267202377E-1,4.799210330E0
8.896196940E-1,1.527817249E0,-4.626522541E0,-8.297112584E-1,4.942403984E0
8.918095850E-1,1.689931035E0,-4.664807796E0,-7.896314859E-1,5.023924419E0
8.939925390E-1,1.857428551E0,-4.750949383E0,-7.405785918E-1,5.154611286E0
8.962084090E-1,2.019542217E0,-4.789234638E0,-6.717849374E-1,5.240860062E0
8.983992450E-1,2.172084808E0,-4.802993298E0,-5.748756528E-1,5.302563441E0
9.005879360E-1,2.373081923E0,-4.846064091E0,-5.108676553E-1,5.420040659E0
9.027969510E-1,2.563909531E0,-4.869992256E0,-3.996013701E-1,5.518164361E0
9.049931580E-1,2.759522676E0,-4.878965378E0,-2.829512656E-1,5.612426390E0
9.071925600E-1,2.970091105E0,-4.907679081E0,-1.956132501E-1,5.739775229E0
9.093842320E-1,3.208775282E0,-4.926821709E0,-1.022931710E-1,5.880499541E0
9.115800530E-1,3.476173162E0,-4.932205677E0,-6.221338734E-2,6.034426501E0
9.137759650E-1,3.762713671E0,-4.965705395E0,-7.178467698E-3,6.230272527E0
9.159718170E-1,4.116253376E0,-4.942375183E0,2.871387079E-2,6.432063339E0
9.181684220E-1,4.517649174E0,-4.942973614E0,5.563312769E-2,6.696658663E0
9.203655130E-1,4.971687317E0,-4.943571568E0,5.922235921E-2,7.011425098E0
9.225612840E-1,5.464010715E0,-4.959125042E0,7.238288224E-2,7.379266465E0
9.247497400E-1,5.932405472E0,-4.979464054E0,4.725824669E-2,7.745368312E0
9.269268340E-1,6.390631199E0,-5.003990173E0,5.563312769E-2,8.116845435E0
9.291524100E-1,6.787241459E0,-5.018945694E0,1.064806059E-1,8.442025860E0
9.313663180E-1,7.107281685E0,-5.009374142E0,2.237289101E-1,8.698122606E0
9.335291090E-1,7.389634609E0,-4.971088886E0,3.314059377E-1,8.912253041E0
9.357478890E-1,7.647460938E0,-4.894518852E0,4.522434771E-1,9.090901922E0
9.379233340E-1,7.948358536E0,-4.779663086E0,5.545366406E-1,9.291345086E0
9.401449020E-1,8.254639626E0,-4.640879631E0,5.994020700E-1,9.488736583E0
9.423244680E-1,8.574680328E0,-4.483551502E0,6.299105883E-1,9.696605806E0
9.445261270E-1,8.909674644E0,-4.322035789E0,6.412764788E-1,9.923383050E0
9.467139220E-1,9.239884377E0,-4.112065792E0,6.047859192E-1,1.013164914E1
9.489125920E-1,9.589237213E0,-3.845266104E0,5.252245665E-1,1.034482492E1
9.511084130E-1,9.952945709E0,-3.593421459E0,4.259224236E-1,1.059033597E1
9.533051910E-1,1.035494041E1,-3.288934708E0,2.895315289E-1,1.086856527E1
9.555032800E-1,1.076171970E1,-3.017947674E0,1.381855011E-1,1.117773297E1
9.576986750E-1,1.125404263E1,-2.746960402E0,-1.734796353E-2,1.158445371E1
9.598944250E-1,1.175653553E1,-2.466402054E0,-1.818545163E-1,1.201383943E1
9.620879460E-1,1.231167030E1,-2.215155602E0,-3.367897868E-1,1.251389497E1
9.642782130E-1,1.288535023E1,-2.006381750E0,-4.815555513E-1,1.304951010E1
9.664553270E-1,1.350688553E1,-1.802991867E0,-6.502495408E-1,1.364219780E1
9.686770370E-1,1.415234947E1,-1.632503271E0,-7.752745152E-1,1.426727420E1
9.708668470E-1,1.477448368E1,-1.462014675E0,-9.050851464E-1,1.487420701E1
9.730525560E-1,1.537687683E1,-1.310668588E0,-1.001396298E0,1.546508932E1
9.752665960E-1,1.592662716E1,-1.192822099E0,-1.079162955E0,1.600765036E1
9.774608710E-1,1.643809319E1,-1.088734269E0,-1.118644595E0,1.651204456E1
9.796627650E-1,1.695434570E1,-9.894321561E-1,-1.201196909E0,1.702561859E1
9.818531140E-1,1.744666862E1,-9.050851464E-1,-1.274776220E0,1.751657728E1
9.840488030E-1,1.797249031E1,-8.488538265E-1,-1.385444283E0,1.804578667E1
9.862390390E-1,1.849831390E1,-8.165507317E-1,-1.424925923E0,1.857107391E1
9.884099270E-1,1.903849411E1,-7.752745152E-1,-1.468594909E0,1.911078438E1
9.906063380E-1,1.957388687E1,-7.573283911E-1,-1.498505235E0,1.964576574E1
9.928087810E-1,2.015653992E1,-7.435696125E-1,-1.474576950E0,2.022407907E1
9.950293220E-1,2.078764725E1,-7.256234884E-1,-1.421934843E0,2.084885383E1
9.972314500E-1,2.152822495E1,-7.363911867E-1,-1.354337573E0,2.158334940E1
9.994274750E-1,2.239741898E1,-7.465606928E-1,-1.242473125E0,2.244427475E1
1.001617579E0,2.341556358E1,-7.573283911E-1,-1.071984529E0,2.345232004E1
1.003808181E0,2.455694008E1,-7.154539824E-1,-8.530412912E-1,2.458216548E1
1.005984574E0,2.578984261E1,-6.203392744E-1,-5.760720372E-1,2.580373348E1
1.008206884E0,2.707060051E1,-4.061816335E-1,-2.279163599E-1,2.707460695E1
1.010398320E0,2.839443016E1,-1.004985496E-1,1.639083475E-1,2.839508109E1
1.012588008E0,2.978047180E1,3.625126183E-1,5.359922647E-1,2.978750080E1
1.014793340E0,3.116172981E1,9.834501147E-1,8.356932998E-1,3.118844277E1
1.016989190E0,3.258665466E1,1.752144337E0,1.087537885E0,3.265184238E1
1.019189437E0,3.406482315E1,2.672782898E0,1.290927768E0,3.419389477E1
1.021381770E0,3.553760529E1,3.714258909E0,1.546361685E0,3.576462419E1
1.023573308E0,3.696791458E1,4.889134884E0,1.815554142E0,3.733398700E1
1.025755712E0,3.835096359E1,6.178866386E0,2.078764677E0,3.890110617E1
1.027970942E0,3.963770676E1,7.526623726E0,2.331805706E0,4.041330449E1
1.030165716E0,4.079164505E1,8.955737114E0,2.602792740E0,4.184421182E1
1.032366573E0,4.181577301E1,1.041835022E1,2.848057270E0,4.318810396E1
1.034557632E0,4.266821671E1,1.184267712E1,3.068794966E0,4.438742187E1
1.036747655E0,4.333940125E1,1.325324631E1,3.331407309E0,4.544282686E1
1.038924158E0,4.382813644E1,1.458844185E1,3.611367464E0,4.633325107E1
1.041146092E0,4.412125778E1,1.583270931E1,3.929014683E0,4.704037871E1
1.043337000E0,4.422294998E1,1.696271896E1,4.298107624E0,4.755919332E1
1.045513820E0,4.415236282E1,1.792642975E1,4.700101852E0,4.788401595E1
1.047708430E0,4.389513397E1,1.876092529E1,5.063212872E0,4.800407513E1
1.049930262E0,4.346562195E1,1.947159386E1,5.468796253E0,4.794070286E1
1.052132939E0,4.285904312E1,2.002912140E1,5.830112457E0,4.766606227E1
1.054329045E0,4.208496475E1,2.040539360E1,6.205187321E0,4.718080855E1
1.056518255E0,4.113441467E1,2.062433624E1,6.503692150E0,4.647258684E1
1.058708144E0,4.001576996E1,2.067996979E1,6.767500877E0,4.554911705E1
1.060886520E0,3.875415421E1,2.059263229E1,6.997211456E0,4.443986882E1
1.063107794E0,3.736272812E1,2.030489540E1,7.165307522E0,4.312312444E1
1.065302170E0,3.586661530E1,1.992024803E1,7.236494064E0,4.166049953E1
1.067502537E0,3.427419281E1,1.942134476E1,7.250850677E0,4.005600780E1
1.069693994E0,3.263451004E1,1.883570099E1,7.101897717E0,3.834360218E1
1.071890151E0,3.097090149E1,1.819203186E1,6.867401123E0,3.656922149E1
1.074086959E0,2.927379227E1,1.755793381E1,6.656234264E0,3.477846184E1
1.076282527E0,2.754318237E1,1.687598038E1,6.387639999E0,3.292761081E1
1.078479569E0,2.583650208E1,1.625564003E1,6.037091732E0,3.111618789E1
1.080675482E0,2.418725014E1,1.566401482E1,5.682953835E0,2.937142138E1
1.082870752E0,2.261935234E1,1.501974773E1,5.315057278E0,2.766726868E1
1.085060379E0,2.115195465E1,1.431745434E1,4.962115765E0,2.601955567E1
1.087230576E0,1.977488518E1,1.369232941E1,4.648057938E0,2.449755929E1
1.089433333E0,1.850309944E1,1.311924839E1,4.329812527E0,2.309170076E1
1.091650294E0,1.730848312E1,1.265623760E1,4.064209461E0,2.182387997E1
1.093835688E0,1.618026733E1,1.233619690E1,3.722035646E0,2.068420543E1
1.096056026E0,1.512921906E1,1.204965687E1,3.370888948E0,1.963289057E1
1.098243870E0,1.419242954E1,1.183908844E1,3.001197815E0,1.872421586E1
1.100442886E0,1.338963699E1,1.161835003E1,2.636890650E0,1.792265685E1
1.102628087E0,1.258205986E1,1.138026428E1,2.459821701E0,1.714261848E1
1.104804906E0,1.180798149E1,1.119422245E1,2.310868502E0,1.643408520E1
1.107027368E0,1.109133148E1,1.109850979E1,2.076371908E0,1.582737735E1
1.109223048E0,1.041236782E1,1.105125141E1,1.870589137E0,1.529858376E1
1.111425888E0,9.781859398E0,1.107039356E1,1.693520188E0,1.486964685E1
1.113610193E0,9.232706070E0,1.110389328E1,1.488335729E0,1.451738443E1
1.115786748E0,8.707481384E0,1.112782192E1,1.283151150E0,1.418785148E1
1.118007156E0,8.187042236E0,1.113739300E1,1.116251707E0,1.386777564E1
1.120202743E0,7.656434059E0,1.109970570E1,1.026520967E0,1.352324644E1
1.122405573E0,7.125825882E0,1.103809071E1,9.511470199E-1,1.317275680E1
1.124589197E0,6.619145870E0,1.097228813E1,9.284151793E-1,1.284780735E1
1.126766108E0,6.169893265E0,1.088674450E1,8.775677085E-1,1.254427813E1
1.128981359E0,5.734997749E0,1.078205872E1,8.602197170E-1,1.224266994E1
1.131154861E0,5.338387489E0,1.067258739E1,8.482556343E-1,1.196336242E1
1.133368943E0,4.965106964E0,1.055414295E1,8.889335990E-1,1.169753921E1
1.135575587E0,4.640281200E0,1.041595650E1,8.919246197E-1,1.143765225E1
1.137771234E0,4.338785648E0,1.028315544E1,9.475577474E-1,1.120117014E1
1.139946202E0,4.051646709E0,1.017368412E1,9.792626500E-1,1.099448248E1
1.142163600E0,3.779463291E0,1.004506969E1,1.015753269E0,1.078051588E1
1.144354029E0,3.506681681E0,9.926624298E0,1.038485050E0,1.057890058E1
1.146540359E0,3.253042459E0,9.816555023E0,1.007976532E0,1.039052715E1
1.148753098E0,3.019144058E0,9.702297211E0,9.876375198E-1,1.020907586E1
1.150948960E0,2.746362209E0,9.592825890E0,9.810572863E-1,1.002632970E1
1.153149084E0,2.483749866E0,9.512067795E0,1.013360381E0,9.883083850E0
1.155339319E0,2.230110645E0,9.426525116E0,1.001994491E0,9.738416823E0
1.157538447E0,1.966900229E0,9.355338097E0,1.000199914E0,9.612046987E0
1.159744319E0,1.737787485E0,9.283554077E0,9.655039310E-1,9.494023356E0
1.161928440E0,1.517647743E0,9.198010445E0,9.308080077E-1,9.368727467E0
1.164124700E0,1.302891970E0,9.126225471E0,8.715856671E-1,9.259869352E0
1.166319148E0,1.106680512E0,9.020941734E0,8.087740541E-1,9.124486123E0
1.168517247E0,9.343972206E-1,8.944969177E0,7.453642488E-1,9.024474478E0
1.170705744E0,7.866404653E-1,8.815756798E0,6.825526357E-1,8.877063098E0
1.172882247E0,6.382854581E-1,8.696115494E0,6.005984545E-1,8.740168849E0
1.175104009E0,5.090730190E-1,8.557332039E0,5.282155871E-1,8.588719268E0
1.177300288E0,3.894318938E-1,8.408378601E0,4.564309120E-1,8.429757830E0
1.179502486E0,3.032902777E-1,8.269595146E0,3.990031779E-1,8.284768700E0
1.181693120E0,1.980060786E-1,8.135597229E0,3.314059377E-1,8.144751597E0
1.183889481E0,1.022931710E-1,8.001599312E0,2.739782035E-1,8.006941957E0
1.186085393E0,4.007977992E-2,7.853243828E0,2.165504545E-1,7.856331148E0
1.188280196E0,-1.734796353E-2,7.690532207E0,1.405783296E-1,7.691836507E0
1.190469589E0,-6.041877344E-2,7.523034573E0,8.374879509E-2,7.523743315E0
1.192646459E0,-1.136590764E-1,7.374679565E0,2.153540403E-2,7.375586814E0
1.194868586E0,-1.423729509E-1,7.211967468E0,-1.615155302E-2,7.213390721E0
1.197064672E0,-1.423729509E-1,7.054041386E0,-4.426721856E-2,7.055616877E0
1.199267349E0,-1.764706671E-1,6.896114826E0,-4.845465720E-2,6.898542560E0
1.201457809E0,-1.812563092E-1,6.742974281E0,-4.307080805E-2,6.745547502E0
1.203648503E0,-1.956132501E-1,6.609574318E0,-1.435693540E-2,6.612483900E0
1.205828506E0,-2.057827413E-1,6.470790863E0,3.888336942E-2,6.474178932E0
1.208040390E0,-2.105683982E-1,6.327819347E0,7.298108935E-2,6.331742492E0
1.210224176E0,-1.962114573E-1,6.222535133E0,1.214357466E-1,6.226812111E0
1.212441695E0,-1.728814393E-1,6.108277798E0,1.746760458E-1,6.113219885E0
1.214632828E0,-1.298106313E-1,6.002993584E0,2.183450609E-1,6.008365612E0
1.216832881E0,-8.733802289E-2,5.912664890E0,2.715853751E-1,5.919543281E0
1.219025914E0,-3.469592705E-2,5.831308842E0,3.206382394E-1,5.840220501E0
1.221221664E0,3.170489892E-2,5.769095421E0,3.355933726E-1,5.778935031E0
1.223417974E0,1.130608693E-1,5.702096462E0,3.936193287E-1,5.716784323E0
1.225611761E0,1.842473447E-1,5.621338367E0,4.905286431E-1,5.645707261E0
1.227784642E0,2.608176768E-1,5.568696499E0,5.581258535E-1,5.602669991E0
1.230005061E0,3.230310678E-1,5.545366287E0,6.735795736E-1,5.595457602E0
1.232199692E0,3.798605800E-1,5.526822090E0,7.842476368E-1,5.595096141E0
1.234403274E0,4.229314029E-1,5.536991596E0,8.703892231E-1,5.620918458E0
1.236599747E0,4.995017350E-1,5.560919762E0,9.427721500E-1,5.662344912E0
1.238807266E0,5.754738450E-1,5.575276852E0,9.912267923E-1,5.691872510E0
1.240985194E0,6.759724021E-1,5.590231895E0,1.068395257E0,5.731413417E0
1.243175358E0,8.099704385E-1,5.614160061E0,1.165304661E0,5.790749542E0
1.245351313E0,9.337990284E-1,5.623731613E0,1.199402332E0,5.825538931E0
1.247573197E0,1.063011408E0,5.642873764E0,1.253240824E0,5.877297860E0
1.249769364E0,1.201196909E0,5.638088226E0,1.306481123E0,5.910821075E0
1.251971461E0,1.373480201E0,5.633302689E0,1.356132269E0,5.954799894E0
1.254162694E0,1.521237016E0,5.652445316E0,1.395015597E0,6.017505183E0
1.256358343E0,1.693520188E0,5.623731613E0,1.478166223E0,6.056347354E0
1.258546768E0,1.884347796E0,5.628517151E0,1.517647743E0,6.126518310E0
1.260724187E0,2.080559254E0,5.642275810E0,1.552343726E0,6.210778870E0
1.262945683E0,2.276172638E0,5.651846886E0,1.611566067E0,6.302497940E0
1.265135564E0,2.491526604E0,5.670391560E0,1.607976794E0,6.398955745E0
1.267318842E0,2.682354212E0,5.698507309E0,1.566700578E0,6.490189548E0
1.269538721E0,2.921636343E0,5.697908878E0,1.496710539E0,6.575885259E0
1.271750198E0,3.151347399E0,5.720640659E0,1.397408366E0,6.679032125E0
1.273933020E0,3.399602890E0,5.734399319E0,1.313659668E0,6.794581450E0
1.276121892E0,3.691527128E0,5.772086620E0,1.272383451E0,6.968738490E0
1.278312760E0,3.997210264E0,5.828317642E0,1.226321578E0,7.172924163E0
1.280513647E0,4.360919476E0,5.884549141E0,1.143171072E0,7.412987074E0
1.282709864E0,4.771886349E0,5.998208046E0,1.083350420E0,7.740997818E0
1.284905695E0,5.240880013E0,6.110671043E0,8.327022791E-1,8.093238968E0
1.287102259E0,5.742774487E0,6.286543369E0,8.123632669E-1,8.553363106E0
1.289292913E0,6.302096844E0,6.515058041E0,7.962117195E-1,9.099250464E0
1.291463953E0,6.899703979E0,6.689733982E0,5.557330847E-1,9.626385356E0
1.293664433E0,7.540980339E0,6.926623344E0,3.254238665E-1,1.024453006E1
1.295885788E0,8.219944000E0,7.216155052E0,1.764706671E-1,1.093944766E1
1.298081488E0,8.913264275E0,7.655237675E0,3.038884699E-1,1.175335238E1
1.300259120E0,9.655039787E0,8.103892326E0,3.511467278E-1,1.261016131E1
1.302471664E0,1.045364380E1,8.595019341E0,3.690928817E-1,1.353843624E1
1.304655767E0,1.131924725E1,9.090332985E0,3.978067636E-1,1.452300803E1
1.306852930E0,1.218006516E1,9.591629982E0,4.785645306E-1,1.551071813E1
1.309063685E0,1.305524063E1,1.009771156E1,6.221339107E-1,1.651635969E1
1.311260391E0,1.390170097E1,1.060857964E1,8.081758618E-1,1.750578190E1
1.313459132E0,1.475294781E1,1.106680489E1,9.655039310E-1,1.846769713E1
1.315649652E0,1.553659725E1,1.147717381E1,1.127617717E0,1.934897657E1
1.317846420E0,1.629691696E1,1.186899853E1,1.299302697E0,2.020274278E1
1.320042343E0,1.706202126E1,1.219382381E1,1.461416483E0,2.102231307E1
1.322238734E0,1.776431465E1,1.247019482E1,1.618744493E0,2.176458057E1
1.324430323E0,1.846242142E1,1.271426296E1,1.828714728E0,2.249128020E1
1.326611130E0,1.907917213E1,1.290509033E1,2.019542217E0,2.312216937E1
1.328826544E0,1.971446609E1,1.311565876E1,2.271985054E0,2.378744615E1
1.331016230E0,2.030728722E1,1.330708504E1,2.519642353E0,2.440928151E1
1.333198002E0,2.092343903E1,1.348415375E1,2.748754978E0,2.504332959E1
1.335415492E0,2.152104759E1,1.362293720E1,2.958127022E0,2.564157606E1
1.337604447E0,2.214198494E1,1.375214958E1,3.244667530E0,2.626627082E1
1.339788681E0,2.278684998E1,1.386700535E1,3.468994617E0,2.689922476E1
1.342003586E0,2.347000122E1,1.394776344E1,3.646063566E0,2.754405275E1
1.344193304E0,2.417289162E1,1.403809261E1,3.804588079E0,2.821119678E1
1.346375534E0,2.488954353E1,1.411884975E1,3.962514400E0,2.888828164E1
1.348590530E0,2.564926338E1,1.417567921E1,4.135395527E0,2.959621748E1
1.350786382E0,2.638984299E1,1.423669624E1,4.202992916E0,3.027825098E1
1.352989375E0,2.715913582E1,1.424028587E1,4.228117466E0,3.095612019E1
1.355178929E0,2.786142921E1,1.417209053E1,4.180859566E0,3.153707302E1
1.357374486E0,2.852603531E1,1.408415413E1,4.128815651E0,3.208029312E1
1.359568751E0,2.911347389E1,1.395793247E1,4.009772778E0,3.253454347E1
1.361768154E0,2.962972450E1,1.374556923E1,3.827918053E0,3.288638326E1
1.363963221E0,3.008316422E1,1.349073410E1,3.641277790E0,3.317010069E1
1.366159694E0,3.044627571E1,1.318265820E1,3.362514019E0,3.334763383E1
1.368354996E0,3.068974495E1,1.284586811E1,3.093321562E0,3.341325202E1
1.370553371E0,3.084288597E1,1.249890900E1,2.679961443E0,3.338695156E1
1.372755549E0,3.090928650E1,1.206102276E1,2.194218397E0,3.325156923E1
1.374943934E0,3.086621475E1,1.159980583E1,1.688734531E0,3.301712484E1
1.377141648E0,3.071307564E1,1.106620693E1,1.177866936E0,3.266712907E1
1.379334671E0,3.045465088E1,1.049013424E1,6.711867452E-1,3.221768409E1
1.381531611E0,3.009632492E1,9.866804123E0,1.399801224E-1,3.167273578E1
1.383726934E0,2.962733269E1,9.214759827E0,-3.637090325E-1,3.102938809E1
1.385923295E0,2.909612465E1,8.481359482E0,-8.237292171E-1,3.031825289E1
1.388119633E0,2.847937584E1,7.701299667E0,-1.231705427E0,2.952798610E1
1.390317144E0,2.779981422E1,6.906882763E0,-1.601994753E0,2.868973837E1
1.392517654E0,2.712503815E1,6.093322754E0,-1.962712765E0,2.787020843E1
1.394708847E0,2.640778923E1,5.279763222E0,-2.285145521E0,2.702719227E1
1.396905014E0,2.566122818E1,4.462016106E0,-2.555534601E0,2.617133884E1
1.399098120E0,2.486202621E1,3.644867182E0,-2.782852650E0,2.528140964E1
1.401295436E0,2.402932358E1,2.827718258E0,-2.943770170E0,2.437355462E1
1.403495101E0,2.321157646E1,2.015953064E0,-3.065804005E0,2.349979793E1
1.405702275E0,2.240758705E1,1.189831018E0,-3.154936552E0,2.265986055E1
1.407883428E0,2.162752724E1,3.822534084E-1,-3.233899832E0,2.187130906E1
1.410080765E0,2.084746742E1,-4.199403822E-1,-3.274577856E0,2.110725250E1
1.412277003E0,2.005783653E1,-1.173679471E0,-3.320639610E0,2.036469929E1
1.414473088E0,1.923949051E1,-1.899302959E0,-3.342773199E0,1.961987460E1
1.416667628E0,1.844028854E1,-2.586641312E0,-3.340978622E0,1.891816833E1
1.418863033E0,1.761775398E1,-3.244667530E0,-3.339782238E0,1.822271297E1
1.421059921E0,1.679940987E1,-3.855435371E0,-3.309871912E0,1.755106281E1
1.423255956E0,1.600499153E1,-4.446462631E0,-3.246462107E0,1.692543353E1
1.425451991E0,1.524945831E1,-5.008776188E0,-3.192623615E0,1.636541058E1
1.427648686E0,1.452682590E1,-5.542973518E0,-3.128615618E0,1.586005870E1
1.429845698E0,1.381855106E1,-6.028716564E0,-3.050848961E0,1.538198480E1
1.432041194E0,1.310608768E1,-6.495316982E0,-2.934797049E0,1.491883745E1
1.434236120E0,1.245045471E1,-6.890132904E0,-2.789433002E0,1.450064448E1
1.436436183E0,1.178106213E1,-7.242475986E0,-2.682952404E0,1.408705494E1
1.438644404E0,1.111107159E1,-7.585247993E0,-2.648854733E0,1.371161297E1
1.440824417E0,1.039860916E1,-7.904091358E0,-2.614158630E0,1.332064405E1
1.443020534E0,9.686145782E0,-8.203792572E0,-2.513062000E0,1.293982663E1
1.445212621E0,8.964112282E0,-8.507680893E0,-2.464607239E0,1.260199318E1
1.447414861E0,8.285148621E0,-8.745766640E0,-2.454437733E0,1.229456735E1
1.449609899E0,7.658827305E0,-8.925827026E0,-2.434697151E0,1.201065252E1
1.451805445E0,7.094718933E0,-9.034700394E0,-2.390429735E0,1.173349915E1
1.453999883E0,6.530611038E0,-9.129216194E0,-2.346760750E0,1.146729065E1
1.456196131E0,6.004788399E0,-9.185447693E0,-2.350350142E0,1.122292648E1
1.458386246E0,5.517251015E0,-9.247062683E0,-2.344367981E0,1.102017642E1
1.460564132E0,5.087141037E0,-9.308079720E0,-2.352144718E0,1.086517081E1
1.462785059E0,4.676173687E0,-9.340981483E0,-2.379063845E0,1.071356524E1
1.464981909E0,4.303491592E0,-9.359525681E0,-2.425125837E0,1.058309955E1
1.467183854E0,3.969094515E0,-9.368498802E0,-2.456232548E0,1.046687916E1
1.469366592E0,3.644268990E0,-9.382855415E0,-2.477767944E0,1.036619536E1
1.471536677E0,3.343371391E0,-9.367900848E0,-2.513660192E0,1.025934628E1
1.473763060E0,3.046661377E0,-9.348159790E0,-2.516052961E0,1.014892898E1
1.475947576E0,2.755335331E0,-9.285347939E0,-2.528017044E0,1.001001645E1
1.478143784E0,2.487937450E0,-9.213563919E0,-2.520838737E0,9.870877407E0
1.480346420E0,2.206182480E0,-9.112466812E0,-2.523231506E0,9.709324888E0
1.482550288E0,1.933998942E0,-9.020941734E0,-2.506481647E0,9.560344760E0
1.484746414E0,1.695314884E0,-8.910273552E0,-2.499303341E0,9.408165842E0
1.486934646E0,1.466202021E0,-8.781061172E0,-2.492124796E0,9.244861799E0
1.489105281E0,1.237089276E0,-8.651249886E0,-2.508276224E0,9.092082494E0
1.491301001E0,1.021735311E0,-8.517251968E0,-2.501097918E0,8.935491868E0
1.493503545E0,8.213363886E-1,-8.363512993E0,-2.493919373E0,8.765989783E0
1.495725662E0,6.113662124E-1,-8.195417404E0,-2.467598438E0,8.580657150E0
1.497927588E0,4.301098585E-1,-8.023134232E0,-2.455035925E0,8.401361722E0
1.500124944E0,2.919243574E-1,-7.850253105E0,-2.394617319E0,8.212544414E0
1.502315099E0,1.770688742E-1,-7.682157040E0,-2.315055847E0,8.025358169E0
1.504504084E0,6.759724021E-2,-7.523632526E0,-2.230110645E0,7.847484264E0
1.506679449E0,-8.973085321E-3,-7.356134892E0,-2.126022816E0,7.657204064E0
1.508901310E0,-8.973085135E-2,-7.173682213E0,-2.060818434E0,7.464364724E0
1.511097081E0,-1.280160099E-1,-7.015756130E0,-2.013560295E0,7.300112824E0
1.513299820E0,-1.710868180E-1,-6.871588230E0,-1.971685886E0,7.150911882E0
1.515490036E0,-1.992024779E-1,-6.694519520E0,-1.963310957E0,6.979316811E0
1.517687566E0,-2.374876440E-1,-6.536593437E0,-1.939980984E0,6.822534746E0
1.519883022E0,-2.703889608E-1,-6.364310265E0,-1.936391711E0,6.657865138E0
1.522077683E0,-2.991028428E-1,-6.220740795E0,-1.898704767E0,6.510926074E0
1.524267410E0,-3.367897868E-1,-6.077171326E0,-1.919043779E0,6.381862401E0
1.526443638E0,-4.133601189E-1,-5.928816319E0,-1.896311998E0,6.238407547E0
1.528659713E0,-4.893322289E-1,-5.809175014E0,-1.892722726E0,6.129303361E0
1.530861659E0,-5.515456200E-1,-5.665606022E0,-1.869392633E0,5.991487544E0
1.533064875E0,-6.418746710E-1,-5.531009674E0,-1.851446509E0,5.867872296E0
1.535256699E0,-7.375875711E-1,-5.401797295E0,-1.853241086E0,5.758294188E0
1.537444748E0,-8.279166222E-1,-5.272584915E0,-1.878365755E0,5.658078784E0
1.539620245E0,-9.278169870E-1,-5.139184952E0,-1.917847395E0,5.563290839E0
1.541841506E0,-1.018744230E0,-5.014758110E0,-1.986042738E0,5.489080475E0
1.544036545E0,-1.104287624E0,-4.895116806E0,-2.001596212E0,5.402592628E0
1.546235418E0,-1.190429211E0,-4.794618607E0,-2.054836512E0,5.350499264E0
1.548430231E0,-1.290329576E0,-4.704289436E0,-2.108675003E0,5.314301439E0
1.550626571E0,-1.371685624E0,-4.627718925E0,-2.167299032E0,5.290981856E0
1.552824865E0,-1.447657704E0,-4.565505505E0,-2.196611166E0,5.269217585E0
1.555019343E0,-1.538584948E0,-4.522434711E0,-2.231307030E0,5.272417891E0
1.557207779E0,-1.610369682E0,-4.488935471E0,-2.236690998E0,5.267505937E0
1.559384517E0,-1.681556106E0,-4.455435753E0,-2.222932339E0,5.255470185E0
1.561606034E0,-1.762912035E0,-4.406980991E0,-2.190030813E0,5.227387040E0
1.563802079E0,-1.834696770E0,-4.368695736E0,-2.176870346E0,5.214439488E0
1.565997828E0,-1.887338877E0,-4.330410957E0,-2.139183521E0,5.185615994E0
1.568193578E0,-1.934597135E0,-4.296313286E0,-2.115255117E0,5.164811529E0
1.570389328E0,-1.977667928E0,-4.243670940E0,-2.101496458E0,5.131880829E0
1.572568568E0,-2.006381750E0,-4.210171223E0,-2.097309113E0,5.113688978E0
1.574795873E0,-2.001596212E0,-4.186243057E0,-2.097309113E0,5.092123707E0
1.576984482E0,-1.992024899E0,-4.138386726E0,-2.111665964E0,5.055051042E0
1.579180781E0,-1.977667928E0,-4.128815651E0,-2.121237278E0,5.045585863E0
1.581370315E0,-1.934597135E0,-4.115056515E0,-2.121237278E0,5.017569509E0
1.583566360E0,-1.891526341E0,-4.091128349E0,-2.154138565E0,4.995549622E0
1.585763271E0,-1.838884234E0,-4.072584152E0,-2.197209358E0,4.979474457E0
1.587955186E0,-1.781456470E0,-4.048655987E0,-2.268395901E0,4.970998131E0
1.590130905E0,-1.728814363E0,-4.063611031E0,-2.301297188E0,4.979729155E0
1.592350774E0,-1.652244091E0,-4.068994999E0,-2.362912416E0,4.986981645E0
1.594545894E0,-1.594816327E0,-4.092923164E0,-2.381456852E0,4.996678485E0
1.596748459E0,-1.499103427E0,-4.103092670E0,-2.438286304E0,5.002791286E0
1.598939306E0,-1.432702541E0,-4.122235298E0,-2.452044964E0,5.005795135E0
1.601135280E0,-1.351346612E0,-4.141975880E0,-2.484946251E0,5.015681382E0
1.603331487E0,-1.255633712E0,-4.137190342E0,-2.503490686E0,4.996040989E0
1.605522517E0,-1.155135155E0,-4.133002758E0,-2.521436930E0,4.977317874E0
1.607694595E0,-1.064207911E0,-4.142574310E0,-2.535195589E0,4.971989247E0
1.609924464E0,-9.690931439E-1,-4.147359848E0,-2.539382935E0,4.958649102E0
1.612109300E0,-8.590233326E-1,-4.171886444E0,-2.552543640E0,4.965685917E0
1.614299738E0,-7.393822074E-1,-4.181457520E0,-2.547159672E0,4.951696217E0
1.616501369E0,-6.532405615E-1,-4.176671982E0,-2.560918331E0,4.942632373E0
1.618701686E0,-5.294120312E-1,-4.186841488E0,-2.593221426E0,4.953253083E0
1.620893417E0,-4.193421602E-1,-4.192225456E0,-2.621337175E0,4.962057105E0
1.623071427E0,-2.709871531E-1,-4.173680782E0,-2.758924484E0,5.010460021E0
1.625292293E0,-8.913264424E-2,-4.094119549E0,-3.040081263E0,5.100181721E0
1.627480952E0,9.332008660E-2,-3.958326817E0,-3.455235958E0,5.255065685E0
1.629664789E0,2.027917206E-1,-4.038486481E0,-3.267997503E0,5.199067726E0
1.631879298E0,3.170489967E-1,-4.180859566E0,-2.955136061E0,5.129613622E0
1.634075557E0,5.120640397E-1,-4.366302967E0,-2.656631231E0,5.136584535E0
1.636277503E0,7.172485590E-1,-4.580460548E0,-2.376671076E0,5.209954869E0
1.638468002E0,9.649057388E-1,-4.804189682E0,-2.086541414E0,5.325874262E0
1.640671026E0,1.226919770E0,-5.027918816E0,-1.786840320E0,5.475225846E0
1.642882849E0,1.488933921E0,-5.284548759E0,-1.391426325E0,5.663872088E0
1.645055435E0,1.750947952E0,-5.522036552E0,-1.010369420E0,5.880438145E0
1.647251216E0,2.051845312E0,-5.721837044E0,-7.345965505E-1,6.122835980E0
1.649441931E0,2.395215511E0,-5.840879917E0,-5.449653864E-1,6.336396675E0
1.651644404E0,2.758326292E0,-5.918048382E0,-5.228317380E-1,6.550191876E0
1.653833307E0,3.135794163E0,-5.938985825E0,-7.112665176E-1,6.753566296E0
1.656010574E0,3.542573929E0,-5.960521221E0,-9.954141974E-1,7.004890627E0
1.658234177E0,4.021138668E0,-5.920441628E0,-1.374676585E0,7.287723991E0
1.660429001E0,4.556532383E0,-5.851647854E0,-1.738983870E0,7.617600335E0
1.662622929E0,5.134997368E0,-5.801398277E0,-2.060220242E0,8.016790342E0
1.664818770E0,5.742774487E0,-5.732006550E0,-2.290529490E0,8.431007249E0
1.667014611E0,6.387639999E0,-5.667400360E0,-2.477169752E0,8.891442042E0
1.669210451E0,7.085746288E0,-5.598008633E0,-2.606382132E0,9.398868492E0
1.671406292E0,7.793423176E0,-5.493920803E0,-2.639283419E0,9.893756999E0
1.673602133E0,8.481359482E0,-5.337191105E0,-2.620738983E0,1.035796024E1
1.675781723E0,9.198608398E0,-5.147559643E0,-2.611167669E0,1.085955631E1
1.677969548E0,9.944570541E0,-4.899902344E0,-2.596810818E0,1.138626157E1
1.680166123E0,1.071924686E1,-4.590630054E0,-2.606980324E0,1.194874404E1
1.682362616E0,1.146999550E1,-4.214358807E0,-2.621935368E0,1.249784629E1
1.684558315E0,1.227338600E1,-3.824328899E0,-2.712862730E0,1.313853567E1
1.686754684E0,1.309113312E1,-3.439084291E0,-2.837887764E0,1.382963029E1
1.688949925E0,1.388076401E1,-3.102294445E0,-3.010170937E0,1.453825881E1
1.691146083E0,1.466501141E1,-2.769692183E0,-3.187239647E0,1.526080767E1
1.693342951E0,1.547318745E1,-2.475374937E0,-3.345165968E0,1.602301926E1
1.695539028E0,1.631007767E1,-2.200200319E0,-3.449851990E0,1.681549862E1
1.697739375E0,1.719901085E1,-1.924427629E0,-3.415754318E0,1.764020333E1
1.699956172E0,1.807418633E1,-1.643869162E0,-3.319443226E0,1.844985692E1
1.702151646E0,1.896790504E1,-1.347757339E0,-3.170490026E0,1.927822291E1
1.704347906E0,1.985683823E1,-1.004387259E0,-2.940180779E0,2.009844474E1
1.706539627E0,2.078405762E1,-6.125625968E-1,-2.657229662E0,2.096218389E1
1.708735449E0,2.176391792E1,-2.159522474E-1,-2.411965132E0,2.189822674E1
1.710917740E0,2.273959160E1,1.513460279E-1,-2.186441660E0,2.284496572E1
1.713127966E0,2.369552422E1,4.755735099E-1,-1.993819475E0,2.378401468E1
1.715323329E0,2.457488632E1,8.153542876E-1,-1.725225091E0,2.464885884E1
1.717529363E0,2.550689125E1,1.192822099E0,-1.423131227E0,2.557439400E1
1.719722234E0,2.644368172E1,1.627717614E0,-1.121037364E0,2.651743751E1
1.721919999E0,2.743371201E1,2.133799553E0,-8.769695163E-1,2.753054178E1
1.724112758E0,2.848057175E1,2.678166628E0,-6.652047038E-1,2.861394836E1
1.726309331E0,2.956571579E1,3.232105255E0,-4.773681164E-1,2.974568767E1
1.728506923E0,3.064667511E1,3.804588079E0,-3.140579760E-1,3.088352665E1
1.730703039E0,3.170370293E1,4.420141697E0,-2.129612118E-1,3.201105722E1
1.732898006E0,3.273201752E1,5.087738991E0,-1.453639716E-1,3.312538588E1
1.735092321E0,3.365983582E1,5.827121258E0,-1.513460279E-1,3.416083715E1
1.737283229E0,3.453082275E1,6.619743824E0,-1.238285750E-1,3.515983592E1
1.739463740E0,3.533959579E1,7.445267677E0,-1.549352705E-1,3.611568976E1
1.741674566E0,3.606761551E1,8.289934158E0,-2.147558331E-1,3.700867489E1
1.743852280E0,3.673760605E1,9.163313866E0,-3.284149170E-1,3.786457283E1
1.746080521E0,3.727957916E1,1.001695347E1,-4.857429862E-1,3.860495209E1
1.748270351E0,3.770610046E1,1.085743237E1,-6.107679605E-1,3.924292149E1
1.750471298E0,3.802733612E1,1.171226883E1,-6.831508875E-1,3.979600770E1
1.752656632E0,3.823910141E1,1.247617722E1,-8.380861282E-1,4.023165747E1
1.754848232E0,3.835036850E1,1.320239925E1,-9.696913958E-1,4.057085668E1
1.757080288E0,3.833242035E1,1.381376553E1,-1.130010486E0,4.076115174E1
1.759249466E0,3.819004822E1,1.432463264E1,-1.333998680E0,4.080997961E1
1.761449560E0,3.791367722E1,1.475414467E1,-1.524826288E0,4.071187542E1
1.763635992E0,3.752723694E1,1.510289860E1,-1.725225091E0,4.048910298E1
1.765838465E0,3.701636887E1,1.537567997E1,-1.902892232E0,4.012784691E1
1.768033269E0,3.641935730E1,1.555274868E1,-2.075175524E0,3.965556621E1
1.770229558E0,3.571287918E1,1.568734550E1,-2.229512453E0,3.907010717E1
1.772425858E0,3.494837189E1,1.574537086E1,-2.331207514E0,3.840234276E1
1.774616023E0,3.417907715E1,1.574178219E1,-2.466402054E0,3.771069027E1
1.776793991E0,3.337150192E1,1.563230991E1,-2.648854733E0,3.694648407E1
1.779013779E0,3.253042221E1,1.547019672E1,-2.841476917E0,3.613349342E1
1.781205593E0,3.167977524E1,1.524108410E1,-3.052643538E0,3.528763858E1
1.783392380E0,3.080998421E1,1.495454311E1,-3.287738323E0,3.440498089E1
1.785601965E0,2.988276482E1,1.463510132E1,-3.451048374E0,3.345258672E1
1.787791326E0,2.887897682E1,1.432582951E1,-3.543770313E0,3.243120413E1
1.789973323E0,2.778844833E1,1.400758362E1,-3.555136204E0,3.132170578E1
1.792189611E0,2.667458916E1,1.372762394E1,-3.543172121E0,3.020820144E1
1.794385677E0,2.554697037E1,1.343809223E1,-3.541377544E0,2.908214869E1
1.796588436E0,2.441875458E1,1.314377499E1,-3.529413462E0,2.795516330E1
1.798780492E0,2.329472733E1,1.282014561E1,-3.541377544E0,2.682427649E1
1.800975418E0,2.217129707E1,1.251206970E1,-3.448057413E0,2.569060922E1
1.803170161E0,2.111007881E1,1.220818138E1,-3.435495138E0,2.462676891E1
1.805359136E0,2.008654976E1,1.177567863E1,-3.250051260E0,2.350954959E1
1.807529708E0,1.908275986E1,1.146820068E1,-3.074777126E0,2.247499956E1
1.809756735E0,1.820280075E1,1.122173977E1,-2.956332445E0,2.158724855E1
1.811941982E0,1.738505363E1,1.091785145E1,-2.764906645E0,2.071434959E1
1.814138341E0,1.663370705E1,1.060499001E1,-2.534597397E0,1.988894686E1
1.816341568E0,1.595474339E1,1.036869907E1,-2.294716835E0,1.916584155E1
1.818543148E0,1.527518177E1,1.015155029E1,-1.950150490E0,1.844419254E1
1.820731757E0,1.462074471E1,1.006301594E1,-1.791625977E0,1.783929340E1
1.822908504E0,1.405185127E1,9.978070259E0,-1.781456470E0,1.732599196E1
1.825129990E0,1.350628757E1,9.792626381E0,-1.694118381E0,1.676858290E1
1.827319962E0,1.297089291E1,9.594022751E0,-1.520040631E0,1.620493316E1
1.829503200E0,1.241575813E1,9.452845573E0,-1.289133191E0,1.565787993E1
1.831718582E0,1.188514996E1,9.354142189E0,-1.101296663E0,1.516474925E1
1.833915777E0,1.132582760E1,9.260223389E0,-9.475577474E-1,1.466028559E1
1.836117824E0,1.078564835E1,9.180662155E0,-8.506484628E-1,1.418937527E1
1.838306351E0,1.023589706E1,9.115457535E0,-7.591229677E-1,1.372739678E1
1.840502101E0,9.710074425E0,9.049654961E0,-6.622136831E-1,1.328985806E1
1.842698095E0,9.150752068E0,9.003593445E0,-5.994020700E-1,1.285146844E1
1.844894741E0,8.615358353E0,8.937790871E0,-5.024927258E-1,1.242421040E1
1.847090551E0,8.070392609E0,8.877371788E0,-4.061816335E-1,1.200433048E1
1.849280706E0,7.578069210E0,8.812167168E0,-2.799602449E-1,1.162582474E1
1.851458950E0,7.047461033E0,8.741579056E0,-1.836491376E-1,1.123012192E1
1.853674872E0,6.583851337E0,8.651848793E0,-1.674975902E-1,1.087334546E1
1.855849574E0,6.114858150E0,8.547760963E0,-1.082752272E-1,1.051034877E1
1.858059250E0,5.646463394E0,8.419744492E0,-6.340979785E-2,1.013798140E1
1.860266414E0,5.187639713E0,8.306085587E0,-3.768695518E-2,9.793063049E0
1.862467961E0,4.738387108E0,8.168498039E0,1.196411345E-2,9.443347698E0
1.864663173E0,4.283750534E0,8.035696983E0,7.597211748E-2,9.106520543E0
1.866855729E0,3.863212109E0,7.917252064E0,1.118644550E-1,8.810210082E0
1.869053565E0,3.427718401E0,7.779664516E0,1.567298770E-1,8.502764120E0
1.871248926E0,3.011965513E0,7.642077446E0,1.878365725E-1,8.216359688E0
1.873443202E0,2.605783939E0,7.499105930E0,1.944168359E-1,7.941315861E0
1.875631994E0,2.194218397E0,7.366304398E0,2.111666054E-1,7.689058862E0
1.877809271E0,1.797608018E0,7.223333359E0,1.848455518E-1,7.445945694E0
1.880031001E0,1.414756417E0,7.061817646E0,1.776670814E-1,7.204329933E0
1.882227005E0,1.037288666E0,6.923034191E0,1.088734269E-1,7.001158733E0
1.884429764E0,6.885347366E-1,6.789634228E0,8.733802289E-2,6.825015821E0
1.886621302E0,3.726821244E-1,6.646064758E0,-5.324030295E-2,6.656718656E0
1.888819586E0,1.435693540E-2,6.512664795E0,-1.220339537E-1,6.513823849E0
1.891011308E0,-2.817548811E-1,6.393023968E0,-2.051845491E-1,6.402518408E0
1.893207139E0,-5.736792088E-1,6.278168201E0,-3.361915946E-1,6.313281919E0
1.895402685E0,-8.410771489E-1,6.168098450E0,-4.911268353E-1,6.244521985E0
1.897599675E0,-1.070189953E0,6.043671608E0,-6.263213158E-1,6.169566551E0
1.899795416E0,-1.290329576E0,5.947360516E0,-7.950153351E-1,6.137434065E0
1.901991705E0,-1.481157184E0,5.879763603E0,-9.397810698E-1,6.135848360E0
1.904188980E0,-1.658226132E0,5.798407555E0,-1.088734269E0,6.128342874E0
1.906385107E0,-1.825125456E0,5.749952793E0,-1.228714466E0,6.156523312E0
1.908573471E0,-1.978266120E0,5.687739372E0,-1.348953724E0,6.171190498E0
1.910750117E0,-2.111665964E0,5.644070625E0,-1.441077471E0,6.196077037E0
1.912971492E0,-2.236092806E0,5.586642742E0,-1.527817249E0,6.208455018E0
1.915167771E0,-2.322234392E0,5.538786411E0,-1.561915040E0,6.205683369E0
1.917370174E0,-2.403590441E0,5.476572990E0,-1.614557028E0,6.194908645E0
1.919558569E0,-2.470589399E0,5.404788017E0,-1.638485312E0,6.164428571E0
1.921745275E0,-2.508874655E0,5.342574596E0,-1.667797327E0,6.133441389E0
1.923931555E0,-2.518445730E0,5.275575638E0,-1.657627940E0,6.076347389E0
1.926147803E0,-2.532802820E0,5.199603558E0,-1.633699656E0,6.009986842E0
1.928345546E0,-2.542374134E0,5.142175674E0,-1.609771490E0,5.957935981E0
1.930545182E0,-2.566900492E0,5.065605640E0,-1.575673699E0,5.893393441E0
1.932736852E0,-2.557329178E0,5.013561726E0,-1.503889084E0,5.825582896E0
1.934932052E0,-2.547757864E0,4.975874901E0,-1.432104349E0,5.770729939E0
1.937128800E0,-2.519043922E0,4.956732273E0,-1.374078393E0,5.727378854E0
1.939326666E0,-2.485544443E0,4.947759151E0,-1.278365493E0,5.682646402E0
1.941516130E0,-2.443071842E0,4.933402061E0,-1.205982566E0,5.635729755E0
1.943692917E0,-2.400001049E0,4.953142643E0,-1.115055323E0,5.615779149E0
1.945911963E0,-2.347358942E0,4.977071285E0,-1.052243710E0,5.602548474E0
1.948101344E0,-2.289931297E0,4.982454777E0,-9.559326172E-1,5.566187934E0
1.950284572E0,-2.199602127E0,5.020740032E0,-8.602197170E-1,5.548518537E0
1.952500381E0,-2.099103689E0,5.050052166E0,-7.782655358E-1,5.524034795E0
1.954690618E0,-1.998605132E0,5.059623718E0,-6.765705943E-1,5.481967020E0
1.956875087E0,-1.874776483E0,5.074578762E0,-5.611169338E-1,5.438840748E0
1.959089819E0,-1.774278045E0,5.074578762E0,-4.695914388E-1,5.396288383E0
1.961278408E0,-1.669592023E0,5.065605640E0,-3.966103494E-1,5.348382727E0
1.963461228E0,-1.540379524E0,5.065605640E0,-3.194418252E-1,5.304259860E0
1.965676174E0,-1.416550994E0,5.089533806E0,-2.416750938E-1,5.288513773E0
1.967872605E0,-1.249053478E0,5.108676434E0,-1.878365725E-1,5.262508154E0
1.970074997E0,-1.100698471E0,5.137390137E0,-1.154536903E-1,5.255249194E0
1.972265763E0,-9.194421172E-1,5.161318302E0,-3.290131316E-2,5.242677076E0
1.974455725E0,-7.280163169E-1,5.190032482E0,7.178467698E-3,5.240848830E0
1.976632452E0,-5.132604837E-1,5.199603558E0,8.015955985E-2,5.225489358E0
1.978852524E0,-3.367897868E-1,5.209175110E0,1.531406492E-1,5.222296884E0
1.981048844E0,-1.453639716E-1,5.209175110E0,2.315055877E-1,5.216342670E0
1.983251195E0,5.982056633E-2,5.204389095E0,3.284149170E-1,5.215083960E0
1.985441147E0,3.224328458E-1,5.166702271E0,4.265206456E-1,5.194294481E0
1.987630621E0,5.946164131E-1,5.180460930E0,4.283152521E-1,5.232035749E0
1.989801326E0,8.673982024E-1,5.184648514E0,4.737788737E-1,5.278013478E0
1.991998998E0,1.149153113E0,5.222335339E0,4.755735099E-1,5.368380522E0
1.994216518E0,1.454836130E0,5.265406132E0,5.204389095E-1,5.487431690E0
1.996409338E0,1.828116536E0,5.312066078E0,4.755735099E-1,5.637927478E0
1.998592627E0,2.238485575E0,4.931607246E0,1.310070455E-1,5.417446866E0
2.000813980E0,2.434098721E0,4.693521500E0,3.200400174E-1,5.296829831E0
2.003009304E0,2.659024239E0,4.889732838E0,5.168496966E-1,5.589904358E0
2.005218807E0,2.941377163E0,5.195415974E0,5.371887088E-1,5.994382242E0
2.007426977E0,3.184846878E0,5.482554913E0,6.526423693E-1,6.373978355E0
2.009593053E0,3.395415306E0,5.755336761E0,7.202396393E-1,6.720973998E0
2.011769069E0,3.644867182E0,6.012565136E0,6.777670383E-1,7.063665086E0
2.013983038E0,3.903291941E0,6.236293793E0,5.210371017E-1,7.375535771E0
2.016184952E0,4.137788773E0,6.478567123E0,3.397808075E-1,7.694711099E0
2.018387029E0,4.415356159E0,6.596413612E0,5.443671346E-2,7.937947210E0
2.020571336E0,4.697709084E0,6.656234264E0,-2.117647976E-1,8.149771135E0
2.022748205E0,4.960919380E0,6.688537598E0,-4.109672904E-1,8.337634581E0
2.024969681E0,5.214558601E0,6.778268337E0,-5.000999570E-1,8.566600436E0
2.027160406E0,5.401198864E0,6.964908600E0,-3.655036688E-1,8.821365762E0
2.029343410E0,5.463412285E0,7.338787079E0,-1.992024779E-1,9.151303252E0
2.031557765E0,5.196014404E0,8.167900085E0,9.290133715E-1,9.725030763E0
2.033753129E0,5.967101574E0,8.563314438E0,1.974078640E-2,1.043729108E1
2.035955806E0,6.354140759E0,8.165507317E0,-9.421738982E-1,1.038933618E1
2.038146093E0,6.712465763E0,7.646862984E0,-1.157527924E0,1.024068264E1
2.040336136E0,7.022336483E0,7.214958668E0,-1.426122308E0,1.016871000E1
2.042514430E0,7.270591736E0,6.903293133E0,-1.427318692E0,1.012690471E1
2.044732519E0,7.466204643E0,6.751348972E0,-1.176670551E0,1.013456848E1
2.046930853E0,7.723433495E0,6.757331371E0,-8.350951076E-1,1.029613209E1
2.049125422E0,8.000402451E0,6.848856449E0,-6.275177598E-1,1.055021576E1
2.051296616E0,8.421539307E0,6.982256413E0,-5.341976285E-1,1.095260681E1
2.053511419E0,8.894720078E0,7.154539585E0,-4.019941986E-1,1.142213121E1
2.055688085E0,9.205188751E0,7.287939548E0,-2.949153781E-1,1.174463869E1
2.057916052E0,9.424730301E0,7.331010342E0,-2.458625287E-1,1.194276778E1
2.060106166E0,9.544371605E0,7.311269760E0,-3.260220885E-1,1.202730166E1
2.062310065E0,9.654440880E0,7.277172089E0,-4.396811724E-1,1.209788336E1
2.064499670E0,9.740582466E0,7.209574699E0,-4.965106845E-1,1.212862057E1
2.066694077E0,9.984052658E0,7.122834682E0,-5.802595019E-1,1.227814247E1
2.068889583E0,1.056730270E1,7.112067223E0,-5.234299302E-1,1.274846522E1
2.071085883E0,1.124566841E1,7.126423836E0,-3.505485058E-1,1.331817776E1
2.073281917E0,1.181874943E1,7.150950432E0,-4.486542568E-2,1.381379539E1
2.075472154E0,1.247797203E1,7.198806763E0,2.039881349E-1,1.440708909E1
2.077649725E0,1.324247837E1,7.308278561E0,4.773681164E-1,1.513281366E1
2.079872981E0,1.415474224E1,7.423133850E0,7.609176040E-1,1.600120744E1
2.082062628E0,1.517767429E1,7.585247993E0,1.064806104E0,1.700092927E1
2.084248246E0,1.630529213E1,7.709076405E0,1.359721422E0,1.808704655E1
2.086451269E0,1.754297829E1,7.904091358E0,1.617548108E0,1.930925191E1
2.088622035E0,1.881835365E1,8.089534760E0,1.855633974E0,2.056731349E1
2.090830002E0,2.020439529E1,8.288139343E0,1.936989903E0,2.192402273E1
2.093046606E0,2.160958099E1,8.529216766E0,1.985444546E0,2.331659322E1
2.095249334E0,2.307279205E1,8.775078773E0,1.889731646E0,2.475735903E1
2.097446387E0,2.455933380E1,9.043074608E0,1.594218135E0,2.621983231E1
2.099635616E0,2.603690147E1,9.451051712E0,1.440479279E0,2.773657508E1
2.101830542E0,2.754318237E1,9.972686768E0,1.191625714E0,2.931725343E1
2.104026637E0,2.905903625E1,1.048893833E1,7.561319470E-1,3.090335177E1
2.106222784E0,3.048934555E1,1.095254707E1,3.056831062E-1,3.239833208E1
2.108413234E0,3.191905785E1,1.140658569E1,-1.208375469E-1,3.389618050E1
2.110592138E0,3.326801300E1,1.183609676E1,-6.628118753E-1,3.531703831E1
2.112811051E0,3.455953598E1,1.223330593E1,-1.109073281E0,3.667758641E1
2.115008724E0,3.578884888E1,1.255274773E1,-1.689332843E0,3.796402277E1
2.117212643E0,3.686980820E1,1.275314617E1,-2.380858421E0,3.908572605E1
2.119398881E0,3.780241013E1,1.286321640E1,-2.862414122E0,4.003346053E1
2.121600866E0,3.854358673E1,1.294576836E1,-3.321237803E0,4.079499500E1
2.123814825E0,3.901258087E1,1.294217968E1,-3.848257065E0,4.128305419E1
2.125987270E0,3.922314835E1,1.284826088E1,-4.305884361E0,4.149787722E1
2.128183121E0,3.913222122E1,1.266521072E1,-4.669593334E0,4.139496832E1
2.130373377E0,3.878825378E1,1.239183044E1,-4.938786030E0,4.101801678E1
2.132577225E0,3.824807358E1,1.201854992E1,-5.113461971E0,4.041668180E1
2.134772233E0,3.750689697E1,1.150289631E1,-5.255835056E0,3.958165921E1
2.136967260E0,3.660240936E1,1.083470058E1,-5.322235584E0,3.854157884E1
2.139162562E0,3.559323502E1,1.004267693E1,-5.350351334E0,3.736790064E1
2.141352738E0,3.456910706E1,9.174081802E0,-5.402395248E0,3.617143644E1
2.143529649E0,3.357429123E1,8.223533630E0,-5.630909920E0,3.502237404E1
2.145751450E0,3.255016327E1,7.219744205E0,-5.916254044E0,3.386207166E1
2.147947688E0,3.148834991E1,6.177670002E0,-6.163911343E0,3.267527490E1
2.150152116E0,3.039722252E1,5.136792183E0,-6.230311871E0,3.145146351E1
2.152341243E0,2.931566620E1,4.125226021E0,-6.196214199E0,3.024597237E1
2.154529282E0,2.824846840E1,3.099901676E0,-6.142375946E0,2.907428657E1
2.156705440E0,2.715255547E1,2.107478619E0,-6.093921185E0,2.790768012E1
2.158926906E0,2.606621361E1,1.134197950E0,-5.997610092E0,2.677135080E1
2.161118586E0,2.499422836E1,1.710868180E-1,-5.877370834E0,2.567653034E1
2.163305222E0,2.396052933E1,-7.345965505E-1,-5.742176056E0,2.464993273E1
2.165520168E0,2.297947311E1,-1.564307809E0,-5.588437080E0,2.370092556E1
2.167727494E0,2.202234268E1,-2.350350142E0,-5.415555954E0,2.279991161E1
2.169914037E0,2.113699913E1,-3.060420275E0,-5.222933769E0,2.198676742E1
2.172104295E0,2.028993988E1,-3.713062525E0,-5.011168957E0,2.122687702E1
2.174295151E0,1.947637939E1,-4.326821327E0,-4.747360229E0,2.050824630E1
2.176492274E0,1.867717743E1,-4.898705959E0,-4.612165451E0,1.985211190E1
2.178691605E0,1.789771461E1,-5.379065514E0,-4.433900356E0,1.920734252E1
2.180888128E0,1.711765480E1,-5.821139336E0,-4.237090588E0,1.857021017E1
2.183084723E0,1.633819389E1,-6.187241077E0,-4.045664787E0,1.793281728E1
2.185281347E0,1.553480244E1,-6.528816700E0,-3.863212109E0,1.728814455E1
2.187470922E0,1.473560047E1,-6.812964439E0,-3.677170277E0,1.664559963E1
2.189646704E0,1.394178104E1,-7.049853802E0,-3.524029493E0,1.601538264E1
2.191868058E0,1.320120239E1,-7.220342159E0,-3.399602890E0,1.542602947E1
2.194057470E0,1.250788212E1,-7.284948349E0,-3.256631613E0,1.483655071E1
2.196242315E0,1.186241817E1,-7.316653252E0,-3.156133175E0,1.429026089E1
2.198456366E0,1.124148083E1,-7.291528702E0,-3.079562664E0,1.374849040E1
2.200652482E0,1.064865875E1,-7.256234646E0,-3.041277647E0,1.323994880E1
2.202855749E0,1.006600666E1,-7.217351437E0,-3.031108141E0,1.275155945E1
2.205045324E0,9.516255379E0,-7.158727169E0,-3.016751051E0,1.228443234E1
2.207233903E0,9.000003815E0,-7.085746288E0,-2.982653379E0,1.183655737E1
2.209404445E0,8.489136696E0,-6.993622303E0,-2.948555708E0,1.138728131E1
2.211607966E0,8.020741463E0,-6.892525673E0,-2.919243574E0,1.097092461E1
2.213828996E0,7.552944660E0,-6.766902447E0,-2.889333248E0,1.054448616E1
2.216036088E0,7.127620220E0,-6.660421848E0,-2.845664263E0,1.016179090E1
2.218247900E0,6.697510719E0,-6.544968128E0,-2.810968399E0,9.777259380E0
2.220414231E0,6.291328907E0,-6.438487530E0,-2.752344131E0,9.413306502E0
2.222595892E0,5.889933109E0,-6.299105644E0,-2.703291416E0,9.037578682E0
2.224803360E0,5.498706341E0,-6.178267956E0,-2.663809776E0,8.689226023E0
2.227003963E0,5.121238708E0,-6.053243160E0,-2.609373093E0,8.347314934E0
2.229204494E0,4.777270317E0,-5.941977024E0,-2.565105915E0,8.044201079E0
2.231396766E0,4.438087940E0,-5.807380676E0,-2.491526604E0,7.722046342E0
2.233592779E0,4.113262177E0,-5.662614822E0,-2.374876499E0,7.390816649E0
2.235789252E0,3.821935892E0,-5.541777134E0,-2.253440619E0,7.099047992E0
2.237986141E0,3.568296671E0,-5.411966801E0,-2.169692039E0,6.835911741E0
2.240181953E0,3.343969584E0,-5.286343575E0,-2.037488461E0,6.578671613E0
2.242370743E0,3.124428272E0,-5.170291424E0,-1.901097536E0,6.333098553E0
2.244548488E0,2.885145903E0,-5.054837704E0,-1.779063582E0,6.086092204E0
2.246768947E0,2.670390129E0,-4.943571568E0,-1.661815286E0,5.859309970E0
2.248958908E0,2.426322222E0,-4.841876507E0,-1.548754454E0,5.632889843E0
2.251141597E0,2.201995134E0,-4.750350952E0,-1.421934843E0,5.425542870E0
2.253352199E0,1.987239242E0,-4.663012981E0,-1.323230863E0,5.238678248E0
2.255528875E0,1.762313843E0,-4.590630054E0,-1.201196909E0,5.061868073E0
2.257731146E0,1.570888042E0,-4.527220249E0,-1.102493048E0,4.917204831E0
2.259945298E0,1.375274777E0,-4.464408875E0,-9.655039310E-1,4.770170348E0
2.262145483E0,1.188634634E0,-4.405784607E0,-8.805587292E-1,4.647491148E0
2.264343105E0,1.012163997E0,-4.352544308E0,-8.201399446E-1,4.543318989E0
2.266533290E0,8.542376757E-1,-4.299304008E0,-7.639086246E-1,4.449414945E0
2.268729213E0,7.298108935E-1,-4.270590305E0,-7.316055298E-1,4.393837975E0
2.270925889E0,5.772684813E-1,-4.250849247E0,-7.232306600E-1,4.350404672E0
2.273122747E0,4.384847581E-1,-4.255635262E0,-7.244270444E-1,4.339066133E0
2.275315456E0,3.002992272E-1,-4.274179459E0,-7.304090858E-1,4.346525866E0
2.277501878E0,1.471585929E-1,-4.278964996E0,-6.981059909E-1,4.338035162E0
2.279709001E0,-1.196411322E-3,-4.268795490E0,-6.993024349E-1,4.325695350E0
2.281899135E0,-1.728814393E-1,-4.249652863E0,-6.957131624E-1,4.309693057E0
2.284078660E0,-3.786641955E-1,-4.225126743E0,-6.975077987E-1,4.299023110E0
2.286297736E0,-5.407779217E-1,-4.171886444E0,-6.843472719E-1,4.262089681E0
2.288487759E0,-7.178468108E-1,-4.104887009E0,-7.339983582E-1,4.231330168E0
2.290674190E0,-8.991031051E-1,-4.018745422E0,-7.501499057E-1,4.185860251E0
2.292887264E0,-1.085145116E0,-3.937389612E0,-7.854440212E-1,4.159026231E0
2.295075567E0,-1.247856975E0,-3.851248026E0,-8.153542876E-1,4.129656281E0
2.297257604E0,-1.414756417E0,-3.745963812E0,-8.458628058E-1,4.092586528E0
2.299473394E0,-1.576870084E0,-3.654438496E0,-8.811569214E-1,4.076503097E0
2.301669674E0,-1.724626899E0,-3.559323788E0,-9.589236975E-1,4.069724613E0
2.303871965E0,-1.868196249E0,-3.468396425E0,-1.022931695E0,4.070174473E0
2.306061865E0,-2.001596212E0,-3.358326674E0,-1.076770186E0,4.055142350E0
2.308256771E0,-2.125424623E0,-3.291327477E0,-1.106680512E0,4.071241597E0
2.310445777E0,-2.216351986E0,-3.205784082E0,-1.174875975E0,4.070577510E0
2.312650031E0,-2.344966173E0,-3.152543783E0,-1.200000525E0,4.108211280E0
2.314849229E0,-2.435893536E0,-3.105285645E0,-1.272383451E0,4.146725925E0
2.317057877E0,-2.507678032E0,-3.052643538E0,-1.297508121E0,4.158197807E0
2.319237545E0,-2.588435888E0,-3.019144058E0,-1.298106313E0,4.183337327E0
2.321427537E0,-2.645863533E0,-3.000001431E0,-1.317847013E0,4.211570155E0
2.323601263E0,-2.703291416E0,-2.961716175E0,-1.318445325E0,4.221118958E0
2.325827734E0,-2.751147747E0,-2.942573547E0,-1.333400369E0,4.243289944E0
2.328028520E0,-2.803191662E0,-2.909074068E0,-1.338186026E0,4.255741682E0
2.330245683E0,-2.846262455E0,-2.860619545E0,-1.333998680E0,4.250165482E0
2.332414659E0,-2.870190859E0,-2.846262455E0,-1.329811215E0,4.255302974E0
2.334610073E0,-2.898904562E0,-2.807977438E0,-1.325025558E0,4.247832116E0
2.336801316E0,-2.918047190E0,-2.788834810E0,-1.325623751E0,4.248514720E0
2.339002477E0,-2.908475876E0,-2.755335331E0,-1.306481123E0,4.214023924E0
2.341192409E0,-2.894119024E0,-2.731407166E0,-1.263410330E0,4.175250375E0
2.343369900E0,-2.851048231E0,-2.721835852E0,-1.219741344E0,4.126092021E0
2.345591476E0,-2.793620348E0,-2.735594511E0,-1.133599758E0,4.070975361E0
2.347786383E0,-2.746362209E0,-2.749951363E0,-1.061216831E0,4.028761478E0
2.349988644E0,-2.712862730E0,-2.763710260E0,-9.505487680E-1,3.987638594E0
2.352178341E0,-2.631506681E0,-2.787040234E0,-8.685946465E-1,3.930251562E0
2.354368516E0,-2.550748825E0,-2.829512835E0,-7.483552694E-1,3.882331524E0
2.356545335E0,-2.493321180E0,-2.862414122E0,-6.329016089E-1,3.848458075E0
2.358767839E0,-2.431705952E0,-2.910270452E0,-5.126622319E-1,3.826968841E0
2.360958930E0,-2.379063845E0,-2.967100143E0,-4.307080805E-1,3.827419168E0
2.363141638E0,-2.317448616E0,-3.004786968E0,-3.296113312E-1,3.808931142E0
2.365350154E0,-2.264806747E0,-3.052643538E0,-2.620140910E-1,3.810070020E0
2.367531531E0,-2.197807550E0,-3.090330362E0,-1.704886109E-1,3.795993433E0
2.369753271E0,-2.117049932E0,-3.128615618E0,-1.363908947E-1,3.780044785E0
2.371943538E0,-2.050050735E0,-3.166900873E0,-7.357929647E-2,3.773245695E0
2.374147060E0,-1.973480463E0,-3.219542980E0,-4.366901144E-2,3.776504882E0
2.376347520E0,-1.864008784E0,-3.238685369E0,-1.914258115E-2,3.736840659E0
2.378531937E0,-1.749153376E0,-3.324826956E0,2.033899166E-2,3.756917020E0
2.380728033E0,-1.615753531E0,-3.391826153E0,5.024927482E-2,3.757348682E0
2.382919734E0,-1.500898004E0,-3.444468260E0,6.580262631E-2,3.757843317E0
2.385118598E0,-1.362712502E0,-3.554538012E0,9.152546525E-2,3.807900045E0
2.387309576E0,-1.238883972E0,-3.635894060E0,1.166501045E-1,3.842937205E0
2.389489600E0,-1.100100160E0,-3.722035646E0,1.034895778E-1,3.882586742E0
2.391707342E0,-9.667003751E-1,-3.803989887E0,8.135596663E-2,3.925744193E0
2.393903234E0,-7.992027402E-1,-3.885943890E0,1.555334684E-2,3.967307253E0
2.396106014E0,-6.610172391E-1,-3.987040758E0,-6.400800496E-2,4.041971650E0
2.398296820E0,-4.839483798E-1,-4.073780537E0,-1.244267747E-1,4.104311869E0
2.400491278E0,-3.314059377E-1,-4.160520554E0,-2.285145670E-1,4.179949770E0
2.402687088E0,-1.782652885E-1,-4.232903481E0,-3.224328458E-1,4.248907310E0
2.404883134E0,-2.991028316E-2,-4.296313286E0,-4.265206456E-1,4.317536605E0
2.407075131E0,1.369891018E-1,-4.368695736E0,-5.635097623E-1,4.407018459E0
2.409252194E0,3.092723191E-1,-4.451248169E0,-7.100701332E-1,4.518125632E0
2.411447170E0,4.815555513E-1,-4.533800602E0,-8.572286963E-1,4.639190089E0
2.413669866E0,6.197410822E-1,-4.625326157E0,-9.894321561E-1,4.770397998E0
2.415869726E0,7.585247755E-1,-4.717449665E0,-1.112662554E0,4.905885153E0
2.418069138E0,9.164510965E-1,-4.808975220E0,-1.244866014E0,5.051318310E0
2.420248612E0,1.040279627E0,-4.891527653E0,-1.382453322E0,5.188487416E0
2.422425432E0,1.198205948E0,-4.973481655E0,-1.533799291E0,5.340763759E0
2.424646664E0,1.408774376E0,-5.090131760E0,-1.733001828E0,5.558541347E0
2.426843542E0,1.657029629E0,-5.210969448E0,-1.935793519E0,5.800624650E0
2.429046514E0,1.919641972E0,-5.331807137E0,-2.096112728E0,6.042092453E0
2.431238054E0,2.235494614E0,-5.443671703E0,-2.284547329E0,6.312697861E0
2.433433550E0,2.589034081E0,-5.549553871E0,-2.377269268E0,6.569022363E0
2.435627834E0,2.971287489E0,-5.646463394E0,-2.469991207E0,6.841926247E0
2.437823848E0,3.353540897E0,-5.729015827E0,-2.514258385E0,7.098545916E0
2.440019985E0,3.821337700E0,-5.777470112E0,-2.496312141E0,7.362972023E0
2.442209661E0,4.304089546E0,-5.821139336E0,-2.439482689E0,7.639497744E0
2.444386734E0,4.853242397E0,-5.840879917E0,-2.339582443E0,7.946287560E0
2.446608374E0,5.426921844E0,-5.841478348E0,-2.258824587E0,8.287136931E0
2.448798967E0,6.086144447E0,-5.832505226E0,-2.134397745E0,8.695684285E0
2.450981838E0,6.812366009E0,-5.780461311E0,-2.023729801E0,9.160652047E0
2.453195807E0,7.567899704E0,-5.671587944E0,-1.941775560E0,9.654558926E0
2.455389085E0,8.380263329E0,-5.510072231E0,-1.874178290E0,1.020305120E1
2.457594560E0,9.216554642E0,-5.329414368E0,-1.753939033E0,1.078998791E1
2.459784317E0,1.009113121E1,-5.067399979E0,-1.624128342E0,1.140821040E1
2.461980800E0,1.098485088E1,-4.781457901E0,-1.465005636E0,1.206961185E1
2.464176347E0,1.184566879E1,-4.418945312E0,-1.350150228E0,1.271494603E1
2.466373652E0,1.275434303E1,-4.037290096E0,-1.201196909E0,1.343189680E1
2.468569464E0,1.377248859E1,-3.565305710E0,-1.066600680E0,1.426641104E1
2.470764543E0,1.483849144E1,-3.122035265E0,-1.002592683E0,1.519648395E1
2.472960201E0,1.586680698E1,-2.741576433E0,-9.966106415E-1,1.613273188E1
2.475149776E0,1.687538147E1,-2.423331022E0,-1.013958573E0,1.707861660E1
2.477326839E0,1.773620033E1,-2.114058733E0,-1.009172916E0,1.789023411E1
2.479548519E0,1.842473412E1,-1.871187329E0,-9.762716293E-1,1.854522245E1
2.481744778E0,1.900798416E1,-1.604387641E0,-9.439685345E-1,1.909891615E1
2.483948136E0,1.952902222E1,-1.366301775E0,-9.122636318E-1,1.959800281E1
2.486131251E0,2.004527283E1,-1.108475089E0,-8.614161611E-1,2.009437029E1
2.488301509E0,2.058126640E1,-8.656035662E-1,-8.440681696E-1,2.061674677E1
2.490496740E0,2.113101768E1,-6.466603279E-1,-8.410771489E-1,2.115763429E1
2.492699876E0,2.168555260E1,-3.804588020E-1,-9.194421172E-1,2.170836968E1
2.494921780E0,2.231247330E1,-1.286142170E-1,-1.035493970E0,2.233685864E1
2.497122717E0,2.294358063E1,9.930214286E-2,-1.117448211E0,2.297099135E1
2.499319505E0,2.357468605E1,3.128615618E-1,-1.204786181E0,2.360752453E1
2.501511195E0,2.427757835E1,5.162515044E-1,-1.391426325E0,2.432289854E1
2.503707230E0,2.509053993E1,8.099704385E-1,-1.582852125E0,2.515346233E1
2.505901048E0,2.596092987E1,1.085145116E0,-1.692323804E0,2.603865165E1
2.508100713E0,2.692224503E1,1.384247899E0,-1.810170293E0,2.701851469E1
2.510309617E0,2.792603493E1,1.673181176E0,-1.957328916E0,2.804450211E1
2.512489233E0,2.891127968E1,1.971685886E0,-2.094317913E0,2.905401531E1
2.514686356E0,2.993002319E1,2.356332064E0,-2.270190477E0,3.010834359E1
2.516882116E0,3.095833969E1,2.812164783E0,-2.536990166E0,3.118915495E1
2.519078345E0,3.201058197E1,3.353540897E0,-2.889931440E0,3.231524870E1
2.521267758E0,3.306821060E1,3.985844374E0,-3.214757204E0,3.346233960E1
2.523442531E0,3.408755493E1,4.680361271E0,-3.525824070E0,3.458755005E1
2.525659237E0,3.512125397E1,5.532206059E0,-3.885345697E0,3.576595721E1
2.527837551E0,3.608795166E1,6.451648235E0,-4.259822369E0,3.690677589E1
2.530063656E0,3.701756287E1,7.504489899E0,-4.706682205E0,3.806271386E1
2.532253525E0,3.784608078E1,8.681758881E0,-5.150550842E0,3.916920910E1
2.534455542E0,3.854179382E1,9.916455269E0,-5.547161102E0,4.018179877E1
2.536646612E0,3.911726761E1,1.115713406E1,-5.921638012E0,4.110605870E1
2.538842717E0,3.943910217E1,1.225962639E1,-6.181857109E0,4.176070613E1
2.541042913E0,3.958386612E1,1.302832127E1,-6.394818306E0,4.216056585E1
2.543259995E0,3.946063614E1,1.369352531E1,-6.350551128E0,4.224907028E1
2.545423394E0,3.907957840E1,1.447298813E1,-6.394818306E0,4.216129190E1
2.547637101E0,3.854119492E1,1.530509186E1,-6.684948444E0,4.200426262E1
2.549833563E0,3.775873947E1,1.587458324E1,-6.841678143E0,4.152750124E1
2.552024410E0,3.680819321E1,1.627837181E1,-6.812366009E0,4.081956402E1
2.554218462E0,3.569433212E1,1.637288857E1,-6.448058605E0,3.979615918E1
2.556425350E0,3.448954773E1,1.627418518E1,-5.623731613E0,3.854872713E1
2.558605831E0,3.329373550E1,1.620299911E1,-5.139782906E0,3.738217988E1
2.560796576E0,3.208475876E1,1.618146324E1,-5.124827862E0,3.629786988E1
2.562972061E0,3.086142921E1,1.604387665E1,-5.349154949E0,3.519157924E1
2.565189713E0,2.959981346E1,1.572921944E1,-5.539384365E0,3.397413840E1
2.567381780E0,2.837109947E1,1.532483292E1,-5.584847927E0,3.272553003E1
2.569573847E0,2.717588425E1,1.480618858E1,-5.515456200E0,3.143520577E1
2.571758693E0,2.593221474E1,1.426959801E1,-5.259424210E0,3.006264678E1
2.573959875E0,2.466461754E1,1.369472218E1,-5.036891460E0,2.865761765E1
2.576178870E0,2.338266373E1,1.312463188E1,-4.805386066E0,2.724145114E1
2.578350338E0,2.219223404E1,1.253958702E1,-4.658825874E0,2.591218155E1
2.580571997E0,2.105384827E1,1.196830082E1,-4.573880672E0,2.464599634E1
2.582762356E0,1.999203300E1,1.142572784E1,-4.441078663E0,2.345105158E1
2.584964412E0,1.898286057E1,1.090648556E1,-4.456034184E0,2.234181423E1
2.587158260E0,1.801197243E1,1.042074299E1,-4.327419758E0,2.125440182E1
2.589366003E0,1.707458496E1,1.001276588E1,-4.083950043E0,2.021077881E1
2.591547899E0,1.626102448E1,9.531210899E0,-4.049852371E0,1.927864628E1
2.593742255E0,1.537149239E1,9.080163956E0,-3.748356581E0,1.824232257E1
2.595934261E0,1.448196125E1,8.854640007E0,-3.342773199E0,1.730046196E1
2.598133937E0,1.373599815E1,8.808578491E0,-3.242872953E0,1.663685443E1
2.600330613E0,1.306182098E1,8.633303642E0,-3.261417150E0,1.599318421E1
2.602526455E0,1.241635704E1,8.304888725E0,-3.164507866E0,1.526928973E1
2.604722967E0,1.176550865E1,8.045866013E0,-2.647060156E0,1.449724392E1
2.606919877E0,1.117268753E1,7.987242222E0,-2.215753794E0,1.391166956E1
2.609109290E0,1.053200912E1,8.008178711E0,-2.053640127E0,1.338923374E1
2.611285162E0,9.920044899E0,7.995616913E0,-1.880758643E0,1.287922489E1
2.613506049E0,9.298508644E0,8.002795219E0,-1.732403636E0,1.238984329E1
2.615698482E0,8.820542336E0,8.003992081E0,-1.645065546E0,1.202381374E1
2.617889554E0,8.400003433E0,7.943572998E0,-1.432702541E0,1.164959425E1
2.620094631E0,7.940581799E0,7.898707390E0,-1.043868899E0,1.124864792E1
2.622288896E0,7.486543655E0,7.896314621E0,-7.890332937E-1,1.090975224E1
2.624491940E0,7.075576782E0,7.911868095E0,-7.058826685E-1,1.063765547E1
2.626683977E0,6.687939167E0,7.912466049E0,-6.753742099E-1,1.038228200E1
2.628879513E0,6.315257072E0,7.880163193E0,-6.065805554E-1,1.011668838E1
2.631074673E0,5.952146530E0,7.857431412E0,-5.324030519E-1,9.871713616E0
2.633270636E0,5.612365723E0,7.825128078E0,-4.055834413E-1,9.638245503E0
2.635466935E0,5.306682587E0,7.773682594E0,-2.787638307E-1,9.416407512E0
2.637663214E0,5.000401020E0,7.731808186E0,-1.998006850E-1,9.210037377E0
2.639859555E0,4.704289436E0,7.704290867E0,-1.010967568E-1,9.027549912E0
2.642050717E0,4.421936035E0,7.652246952E0,-2.632104978E-2,8.838048117E0
2.644226019E0,4.153940201E0,7.605587006E0,8.614161611E-2,8.666463712E0
2.646447068E0,3.886542082E0,7.578069210E0,1.561316848E-1,8.518023210E0
2.648642462E0,3.604189157E0,7.549953461E0,2.213360965E-1,8.369048118E0
2.650845597E0,3.360719442E0,7.517650604E0,2.817548811E-1,8.239471560E0
2.653029384E0,3.087937593E0,7.484749317E0,3.421736360E-1,8.103944331E0
2.655199246E0,2.834896564E0,7.442874908E0,4.073780477E-1,7.974897009E0
2.657396847E0,2.552543640E0,7.414759159E0,4.671986103E-1,7.855724471E0
2.659601670E0,2.304288149E0,7.372286797E0,5.084748268E-1,7.740730142E0
2.661827022E0,2.045863390E0,7.334599495E0,5.545366406E-1,7.634750660E0
2.664021511E0,1.830509305E0,7.296912670E0,5.676971674E-1,7.544400500E0
2.666216711E0,1.610967875E0,7.235297680E0,5.856433511E-1,7.435571810E0
2.668406938E0,1.400399446E0,7.188039303E0,5.838487148E-1,7.346421370E0
2.670603308E0,1.194616675E0,7.135995388E0,5.970092416E-1,7.259886997E0
2.672799638E0,1.027717352E0,7.083951473E0,6.197410822E-1,7.184890426E0
2.674989468E0,8.410771489E-1,7.031309128E0,5.994020700E-1,7.106757465E0
2.677167242E0,6.927221417E-1,6.974479675E0,6.083751321E-1,7.035151101E0
2.679388811E0,5.539384484E-1,6.912266254E0,5.832505226E-1,6.958911822E0
2.681584001E0,3.870390654E-1,6.869793892E0,5.826523304E-1,6.905313251E0
2.683786027E0,2.530409992E-1,6.812366009E0,5.718846321E-1,6.841009605E0
2.685975622E0,1.190429255E-1,6.759724140E0,5.712863803E-1,6.784866233E0
2.688165452E0,-1.016949583E-2,6.693323135E0,5.324030519E-1,6.714471761E0
2.690342536E0,-1.196411327E-1,6.640681267E0,5.030909777E-1,6.660785406E0
2.692565130E0,-2.153540403E-1,6.588038921E0,4.450650215E-1,6.606566208E0
2.694760148E0,-3.062812984E-1,6.544968128E0,3.966103494E-1,6.564123384E0
2.696960557E0,-3.780659735E-1,6.520441532E0,3.481557071E-1,6.540665413E0
2.699151720E0,-4.354937077E-1,6.458228111E0,2.955136001E-1,6.479636826E0
2.701348130E0,-4.929214716E-1,6.415157318E0,2.763710022E-1,6.439999684E0
2.703544531E0,-5.359922647E-1,6.348158360E0,2.285145670E-1,6.374842835E0
2.705739569E0,-5.886343718E-1,6.281159401E0,2.333002090E-1,6.312993175E0
2.707930405E0,-5.838487148E-1,6.223731518E0,2.141576260E-1,6.254724360E0
2.710109737E0,-6.029912829E-1,6.142973900E0,2.333002090E-1,6.176905035E0
2.712330878E0,-5.886343718E-1,6.052046776E0,2.578266263E-1,6.086068942E0
2.714525865E0,-5.653043389E-1,5.970690727E0,2.967100143E-1,6.004727603E0
2.716725856E0,-5.509474277E-1,5.889933109E0,3.403790295E-1,5.925429350E0
2.718915737E0,-5.126622319E-1,5.813362598E0,4.079762697E-1,5.850166827E0
2.721105719E0,-4.606183469E-1,5.746961594E0,4.660021961E-1,5.784193536E0
2.723284074E0,-4.031906128E-1,5.684748173E0,5.240281820E-1,5.723069980E0
2.725504075E0,-3.463610709E-1,5.613562107E0,6.059823632E-1,5.656788855E0
2.727693742E0,-2.650051117E-1,5.575276852E0,6.687939167E-1,5.621496685E0
2.729880438E0,-1.692921966E-1,5.560919762E0,7.465606928E-1,5.613362745E0
2.732094020E0,-5.503492057E-2,5.532804012E0,8.285148144E-1,5.594764149E0
2.734288733E0,5.982056633E-2,5.508875847E0,9.158528447E-1,5.584807788E0
2.736490150E0,1.740778536E-1,5.494519234E0,9.738788009E-1,5.582874226E0
2.738679796E0,2.937189937E-1,5.499902725E0,1.032503009E0,5.603683012E0
2.740870113E0,4.462614357E-1,5.518447399E0,1.076770186E0,5.640199021E0
2.743047654E0,5.898307562E-1,5.537590027E0,1.134796143E0,5.683358682E0
2.745269040E0,7.334001660E-1,5.590231895E0,1.145563841E0,5.753336855E0
2.747466366E0,8.715856671E-1,5.618945599E0,1.189232826E0,5.809172568E0
2.749668005E0,9.960124493E-1,5.652445316E0,1.209571838E0,5.865598255E0
2.751856329E0,1.125224829E0,5.699703693E0,1.243669510E0,5.941335452E0
2.754046149E0,1.254437327E0,5.737988472E0,1.277767301E0,6.010891281E0
2.756224605E0,1.359123230E0,5.771488190E0,1.335793257E0,6.077963105E0
2.758445207E0,1.497906923E0,5.809773445E0,1.360917926E0,6.152177682E0
2.760640692E0,1.622333765E0,5.828916073E0,1.395015597E0,6.209210735E0
2.762843279E0,1.779661894E0,5.852245808E0,1.367498159E0,6.267856784E0
2.765034613E0,1.971087694E0,5.866602898E0,1.354337573E0,6.335333181E0
2.767230109E0,2.181656122E0,5.851647854E0,1.332203984E0,6.385622405E0
2.769424994E0,2.420340061E0,5.851049423E0,1.295713425E0,6.463102865E0
2.771621528E0,2.687737942E0,5.850451469E0,1.278963685E0,6.564104337E0
2.773817134E0,2.955734253E0,5.840281963E0,1.271187067E0,6.667921336E0
2.776012935E0,3.261417150E0,5.877370834E0,1.240080357E0,6.835066133E0
2.778207444E0,3.638885021E0,5.958128452E0,1.223330617E0,7.087828768E0
2.780405696E0,4.002593994E0,6.043671608E0,1.211366415E0,7.349430847E0
2.782603715E0,4.274777889E0,6.114260197E0,1.184447169E0,7.553861188E0
2.784798397E0,4.456632137E0,6.142375946E0,1.137787223E0,7.673650502E0
2.786994463E0,4.576273441E0,6.170491219E0,1.066600680E0,7.755957549E0
2.789193904E0,4.676771641E0,6.170491219E0,9.960124493E-1,7.806356106E0
2.791385006E0,4.782055855E0,6.188437462E0,9.056833982E-1,7.873060322E0
2.793581611E0,4.916054249E0,6.235695839E0,8.297112584E-1,7.983727998E0
2.795776334E0,5.102096081E0,6.278168201E0,7.501499057E-1,8.124623392E0
2.797973954E0,5.312664509E0,6.325426579E0,6.987041831E-1,8.289970634E0
2.800170670E0,5.523232937E0,6.372684956E0,6.520441771E-1,8.458272709E0
2.802366502E0,5.742774487E0,6.386443615E0,6.442674994E-1,8.612850949E0
2.804561427E0,5.924628735E0,6.385845661E0,6.311069727E-1,8.733759011E0
2.806757473E0,6.111268997E0,6.366104603E0,5.754738450E-1,8.843419402E0
2.808946804E0,6.273382664E0,6.298507214E0,5.335994363E-1,8.905686471E0
2.811124233E0,6.440880299E0,6.216553211E0,4.731806815E-1,8.964060063E0
2.813345251E0,6.612565517E0,6.072385788E0,3.744767308E-1,8.985550885E0
2.815542883E0,6.741179466E0,5.913861275E0,2.470589429E-1,8.970969507E0
2.817748633E0,6.865606308E0,5.717051506E0,1.962114573E-1,8.936426961E0
2.819928361E0,7.022934437E0,5.559125423E0,1.740778536E-1,8.958559409E0
2.822098201E0,7.228118896E0,5.400600910E0,1.333998591E-1,9.023856631E0
2.824299140E0,7.462615490E0,5.298905849E0,2.093719877E-2,9.152566390E0
2.826521603E0,7.777870178E0,5.178666592E0,-7.716853172E-2,9.344506791E0
2.828724127E0,8.164909363E0,5.153541565E0,-1.166501045E-1,9.656000353E0
2.830920040E0,8.575876236E0,5.109274387E0,-2.189432681E-1,9.984902310E0
2.833110083E0,9.044271469E0,5.088337421E0,-3.445664644E-1,1.038309926E1
2.835307430E0,9.522237778E0,5.087141037E0,-4.558327198E-1,1.080554486E1
2.837503200E0,9.985847473E0,5.148158073E0,-5.383850932E-1,1.124769042E1
2.839698380E0,1.051167011E1,5.233103275E0,-5.491527915E-1,1.175509027E1
2.841887671E0,1.104706383E1,5.374877930E0,-5.982056856E-1,1.229978788E1
2.844064449E0,1.162552929E1,5.569892883E0,-5.898307562E-1,1.290443871E1
2.846286261E0,1.219920826E1,5.775077343E0,-5.670989752E-1,1.350902668E1
2.848478166E0,1.281595802E1,6.007779598E0,-6.065805554E-1,1.416722047E1
2.850668392E0,1.344766331E1,6.226124287E0,-7.082754970E-1,1.483596732E1
2.852877661E0,1.407398415E1,6.439085960E0,-8.572286963E-1,1.550076446E1
2.855067216E0,1.470509148E1,6.667002201E0,-9.637092948E-1,1.617459024E1
2.857251288E0,1.530808258E1,6.908677101E0,-1.113260746E0,1.683171296E1
2.859461555E0,1.590569019E1,7.170093060E0,-1.253240824E0,1.749205041E1
2.861657782E0,1.650389671E1,7.450053215E0,-1.421934843E0,1.816325407E1
2.863858924E0,1.716850281E1,7.735397339E0,-1.571486235E0,1.889612208E1
2.866050584E0,1.784746552E1,8.015357971E0,-1.725225091E0,1.964063111E1
2.868246681E0,1.858864212E1,8.300103188E0,-1.831107497E0,2.043972317E1
2.870443498E0,1.940160370E1,8.580063820E0,-1.907079697E0,2.129968719E1
2.872639441E0,2.025285149E1,8.846264839E0,-1.963909149E0,2.218763922E1
2.874828641E0,2.112742805E1,9.069396019E0,-1.972882271E0,2.307627407E1
2.876999792E0,2.201217461E1,9.306883812E0,-1.952543259E0,2.397845580E1
2.879200944E0,2.289153671E1,9.515657425E0,-1.966302037E0,2.486838421E1
2.881422797E0,2.379482651E1,9.695717812E0,-1.974078655E0,2.577009311E1
2.883624661E0,2.469871521E1,9.856635094E0,-1.925025821E0,2.666243636E1
2.885821143E0,2.562114906E1,9.979267120E0,-1.913659930E0,2.756249528E1
2.888007239E0,2.654298401E1,1.006839943E1,-1.873580098E0,2.845018400E1
2.890189094E0,2.747020149E1,1.011984539E1,-1.814357758E0,2.933112911E1
2.892405300E0,2.839263535E1,1.017547798E1,-1.816750646E0,3.021560320E1
2.894607478E0,2.929113960E1,1.023051357E1,-1.925025821E0,3.108600958E1
2.896795935E0,3.016093063E1,1.028076267E1,-2.038684845E0,3.193011202E1
2.898990801E0,3.101217842E1,1.031186962E1,-2.223530531E0,3.275719697E1
2.901184556E0,3.182454109E1,1.031366348E1,-2.480758905E0,3.354589744E1
2.903384141E0,3.256571960E1,1.030588722E1,-2.761915445E0,3.426901781E1
2.905580379E0,3.326382446E1,1.028853893E1,-3.072384357E0,3.495390675E1
2.907771277E0,3.388057327E1,1.025204849E1,-3.416950703E0,3.556224537E1
2.909950863E0,3.437289810E1,1.019641590E1,-3.800400496E0,3.605421009E1
2.912166734E0,3.477489090E1,1.007916737E1,-4.237090588E0,3.645319723E1
2.914363003E0,3.499981689E1,9.918250084E0,-4.703691006E0,3.668083391E1
2.916564267E0,3.508595657E1,9.690931320E0,-5.156532764E0,3.676313818E1
2.918755316E0,3.498545837E1,9.401998520E0,-5.596213818E0,3.665647941E1
2.920951483E0,3.465106201E1,9.041878700E0,-5.994020939E0,3.630950228E1
2.923149471E0,3.411088181E1,8.601000786E0,-6.331408501E0,3.574375758E1
2.925342057E0,3.340260696E1,8.079963684E0,-6.588038921E0,3.499174505E1
2.927530249E0,3.268057251E1,7.482356548E0,-6.849454880E0,3.421871580E1
2.929735511E0,3.193939590E1,6.850651264E0,-7.211369038E0,3.345235832E1
2.931932075E0,3.113600731E1,6.156732559E0,-7.587640762E0,3.263324378E1
2.934129685E0,3.022733116E1,5.434698582E0,-7.869395256E0,3.170417764E1
2.936323442E0,2.930908585E1,4.685146809E0,-8.035696983E0,3.074972422E1
2.938519589E0,2.828495789E1,3.897309780E0,-8.140382767E0,2.968995954E1
2.940711117E0,2.728535652E1,3.105285645E0,-8.173283577E0,2.865198150E1
2.942882697E0,2.624208641E1,2.294716835E0,-8.134998322E0,2.756974832E1
2.945090623E0,2.525205612E1,1.508076429E0,-8.038687706E0,2.654357046E1
2.947303758E0,2.427099800E1,7.549355626E-1,-7.861020565E0,2.552345815E1
2.949506231E0,2.333779716E1,2.392822644E-3,-7.625925541E0,2.455213886E1
2.951699876E0,2.240938187E1,-7.208378315E-1,-7.338188648E0,2.359129109E1
2.953885271E0,2.151925278E1,-1.396810174E0,-7.006783009E0,2.267430984E1
2.956062436E0,2.064288139E1,-2.048256159E0,-6.671189308E0,2.179056384E1
2.958285295E0,1.980539322E1,-2.647060156E0,-6.259026051E0,2.093886184E1
2.960480973E0,1.895354843E1,-3.178864956E0,-5.794219971E0,2.007274684E1
2.962682552E0,1.813041687E1,-3.643670797E0,-5.338985443E0,1.924819779E1
2.964872464E0,1.731207275E1,-4.041477680E0,-4.869992256E0,1.843253182E1
2.967068192E0,1.649372673E1,-4.409972191E0,-4.405784607E0,1.763240807E1
2.969264858E0,1.571426487E1,-4.717449665E0,-3.960719585E0,1.687838118E1
2.971460344E0,1.490549088E1,-5.005186558E0,-3.510869026E0,1.611060992E1
2.973656480E0,1.407338619E1,-5.283950806E0,-3.147758245E0,1.535866912E1
2.975847499E0,1.329332638E1,-5.495715618E0,-2.784647465E0,1.465161008E1
2.978025570E0,1.253779221E1,-5.702694416E0,-2.430509567E0,1.398657691E1
2.980244778E0,1.181575775E1,-5.866602898E0,-2.071586132E0,1.335367477E1
2.982442725E0,1.111286640E1,-5.978467464E0,-1.765304923E0,1.274182775E1
2.984653968E0,1.043390274E1,-6.086144447E0,-1.511665702E0,1.217343887E1
2.986825659E0,9.793225288E0,-6.136393547E0,-1.301097274E0,1.162993729E1
2.988997138E0,9.133403778E0,-6.200999737E0,-1.114457130E0,1.109565127E1
2.991197048E0,8.526225090E0,-6.227919102E0,-9.804590940E-1,1.060399881E1
2.993394894E0,7.952546120E0,-6.235695839E0,-8.697910309E-1,1.014314689E1
2.995618486E0,7.398009300E0,-6.263213158E0,-7.830511928E-1,9.724790478E0
2.997819128E0,6.858428001E0,-6.275775433E0,-7.196413875E-1,9.324230566E0
3.000014116E0,6.337390900E0,-6.274579048E0,-6.807580590E-1,8.944064914E0
3.002204179E0,5.859424591E0,-6.273382664E0,-6.125625968E-1,8.606010662E0
3.004402177E0,5.405386448E0,-6.263213158E0,-5.778666735E-1,8.293369135E0
3.006596706E0,4.970490932E0,-6.242874146E0,-5.479564071E-1,7.998719518E0
3.008787492E0,4.583451748E0,-6.232106686E0,-5.126622319E-1,7.753064312E0
3.010967943E0,4.205984116E0,-6.217151642E0,-5.012963414E-1,7.522936590E0
3.013187039E0,3.847658873E0,-6.212365627E0,-5.659025311E-1,7.329270848E0
3.015375657E0,3.518047571E0,-6.183053493E0,-6.358926296E-1,7.142210348E0
3.017557797E0,3.183650494E0,-6.172883987E0,-6.669993401E-1,6.977464820E0
3.019761013E0,2.873181820E0,-6.139384747E0,-7.124629617E-1,6.815777454E0
3.021958624E0,2.557927370E0,-6.101099491E0,-7.818548083E-1,6.661659281E0
3.024153469E0,2.261217356E0,-6.081358910E0,-8.560323119E-1,6.544373265E0
3.026363583E0,1.974676847E0,-6.057430744E0,-9.589236975E-1,6.442930275E0
3.028559526E0,1.692921996E0,-6.014359951E0,-1.042672515E0,6.334483126E0
3.030757921E0,1.415952802E0,-5.985645771E0,-1.125823021E0,6.253027675E0
3.032948890E0,1.138983607E0,-5.966503143E0,-1.204786181E0,6.192572419E0
3.035144813E0,8.811569214E-1,-5.918646812E0,-1.259821177E0,6.115060671E0
3.037340990E0,6.329016089E-1,-5.879763603E0,-1.299900889E0,6.054909314E0
3.039537848E0,3.894318938E-1,-5.827121258E0,-1.363908887E0,5.997269946E0
3.041727027E0,1.645065546E-1,-5.774479389E0,-1.404586911E0,5.945127334E0
3.043904090E0,-5.982056633E-2,-5.712265968E0,-1.459023595E0,5.895957161E0
3.046126715E0,-2.697907388E-1,-5.650052547E0,-1.508674622E0,5.854227528E0
3.048315812E0,-4.701896608E-1,-5.582455158E0,-1.534397483E0,5.808550555E0
3.050498298E0,-6.520441771E-1,-5.505885124E0,-1.550549030E0,5.757094311E0
3.052713741E0,-8.189435601E-1,-5.429314613E0,-1.580459356E0,5.713665855E0
3.054902665E0,-9.954141974E-1,-5.352146149E0,-1.591825247E0,5.671880238E0
3.057086330E0,-1.162911773E0,-5.266004562E0,-1.627119422E0,5.632999685E0
3.059301561E0,-1.301097274E0,-5.179862976E0,-1.628315806E0,5.583479823E0
3.061491859E0,-1.449452281E0,-5.084149837E0,-1.625324726E0,5.530928670E0
3.063677171E0,-1.568495274E0,-4.997410297E0,-1.626521230E0,5.484510773E0
3.065891334E0,-1.668993831E0,-4.925625324E0,-1.584646821E0,5.436766575E0
3.068085436E0,-1.792822361E0,-4.834099770E0,-1.571486235E0,5.390018700E0
3.070286850E0,-1.893320918E0,-4.762315273E0,-1.524826288E0,5.346906215E0
3.072477046E0,-1.998006940E0,-4.675575256E0,-1.487737536E0,5.297772993E0
3.074669420E0,-2.084148407E0,-4.599005222E0,-1.450050473E0,5.253300866E0
3.076853299E0,-2.170290232E0,-4.536193371E0,-1.379462242E0,5.214415218E0
3.079066321E0,-2.246860504E0,-4.482953072E0,-1.298704505E0,5.179950169E0
3.081263312E0,-2.303689957E0,-4.400999069E0,-1.242473125E0,5.120499945E0
3.083463305E0,-2.351546526E0,-4.319643021E0,-1.161715388E0,5.053579873E0
3.085647743E0,-2.389831543E0,-4.256831646E0,-1.104885817E0,5.005265541E0
3.087817654E0,-2.428116798E0,-4.174877167E0,-9.954141974E-1,4.931145908E0
3.090020474E0,-2.461616278E0,-4.116851330E0,-9.194421172E-1,4.883993589E0
3.092242164E0,-2.480758905E0,-4.049852371E0,-8.578268886E-1,4.826109815E0
3.094444362E0,-2.499901533E0,-3.991826296E0,-7.908278704E-1,4.775939025E0
3.096640600E0,-2.504687071E0,-3.924827337E0,-6.957131624E-1,4.707626127E0
3.098831153E0,-2.495115757E0,-3.866801500E0,-6.239284873E-1,4.644033079E0
3.101027137E0,-2.485544443E0,-3.809373617E0,-5.473581553E-1,4.581360004E0
3.103222123E0,-2.466402054E0,-3.775275946E0,-4.899304509E-1,4.536064308E0
3.105418219E0,-2.442473650E0,-3.722633839E0,-4.235295951E-1,4.472477786E0
3.107608660E0,-2.408974171E0,-3.689134359E0,-3.894318938E-1,4.423180539E0
3.109787879E0,-2.375474691E0,-3.655036688E0,-3.272185028E-1,4.371412260E0
3.112006049E0,-2.346760750E0,-3.640679598E0,-2.841476798E-1,4.340803365E0
3.114202674E0,-2.337189436E0,-3.625724554E0,-2.075773627E-1,4.318729137E0
3.116405342E0,-2.322832584E0,-3.611367464E0,-1.788634956E-1,4.297617750E0
3.118595679E0,-2.327618122E0,-3.601796389E0,-1.405783296E-1,4.290746510E0
3.120787664E0,-2.280359983E0,-3.610769272E0,-8.255238086E-2,4.271359419E0
3.122975287E0,-2.270788670E0,-3.601198196E0,-2.991028316E-2,4.257464534E0
3.125182461E0,-2.199003935E0,-3.625126362E0,-5.383851007E-3,4.239951466E0
3.127372381E0,-2.136790514E0,-3.653840065E0,3.349951655E-2,4.232911898E0
3.129552385E0,-2.060818434E0,-3.668197155E0,5.324030295E-2,4.207787722E0
3.131771705E0,-1.979462504E0,-3.687339783E0,9.212367237E-2,4.186076116E0
3.133968980E0,-1.907677889E0,-3.730410576E0,1.262213886E-1,4.191793152E0
3.136170701E0,-1.850250125E0,-3.744767427E0,1.507478207E-1,4.179645142E0
3.138358781E0,-1.779063582E0,-3.787838221E0,1.609173268E-1,4.187920725E0
3.140554481E0,-1.707278967E0,-3.835694790E0,1.663011760E-1,4.201786771E0
3.142744768E0,-1.621137381E0,-3.859622955E0,1.531406492E-1,4.189060494E0
3.144924994E0,-1.530808330E0,-3.903291941E0,1.250249892E-1,4.194602885E0
3.147142290E0,-1.444666624E0,-3.951148272E0,8.315058798E-2,4.207796138E0
3.149339260E0,-1.368096352E0,-4.013361931E0,6.939185411E-2,4.240704758E0
3.151541530E0,-1.262812138E0,-4.057030678E0,3.230310604E-2,4.249145315E0
3.153725795E0,-1.172483087E0,-4.095914364E0,4.187439568E-3,4.260428218E0
3.155901414E0,-1.071984529E0,-4.143770695E0,-2.811566554E-2,4.280277665E0
3.158122789E0,-9.667003751E-1,-4.192225456E0,-5.623133108E-2,4.302606867E0
3.160318874E0,-8.572286963E-1,-4.235296249E0,-8.374879509E-2,4.321989035E0
3.162521450E0,-7.232306600E-1,-4.278964996E0,-1.160518974E-1,4.341206292E0
3.164710700E0,-5.844469070E-1,-4.317848682E0,-1.627119333E-1,4.360260383E0
3.166907395E0,-4.701896608E-1,-4.370490551E0,-1.806581169E-1,4.399420795E0
3.169097967E0,-3.266202807E-1,-4.433301926E0,-2.273181528E-1,4.451125736E0
3.171274818E0,-1.884347796E-1,-4.495515347E0,-2.452643216E-1,4.506142528E0
3.173495206E0,-3.529413417E-2,-4.587040901E0,-2.913261652E-1,4.596418262E0
3.175684394E0,1.172483116E-1,-4.683351994E0,-3.326023519E-1,4.696611266E0
3.177868486E0,2.703889608E-1,-4.770092010E0,-3.936193287E-1,4.793936186E0
3.180083351E0,4.564309120E-1,-4.856831551E0,-4.779663086E-1,4.901590934E0
3.182279609E0,6.622136831E-1,-4.953142643E0,-5.617151260E-1,5.028685006E0
3.184483191E0,8.769695163E-1,-5.040481091E0,-6.699903607E-1,5.159884906E0
3.186673580E0,1.101894855E0,-5.122435093E0,-7.974081635E-1,5.299940880E0
3.188870663E0,1.340578914E0,-5.219344616E0,-9.385846853E-1,5.469885854E0
3.191063777E0,1.579861164E0,-5.277968407E0,-1.065404296E0,5.611416765E0
3.193259050E0,1.799402595E0,-5.316852093E0,-1.154536963E0,5.730595211E0
3.195454332E0,1.995614052E0,-5.365306377E0,-1.205384374E0,5.849952090E0
3.197651353E0,2.239083767E0,-5.385645390E0,-1.299302697E0,5.975521724E0
3.199847632E0,2.483151674E0,-5.444269657E0,-1.426720500E0,6.151556366E0
3.202044023E0,2.745764017E0,-5.469394207E0,-1.563111424E0,6.316392194E0
3.204242082E0,3.047259569E0,-5.441876888E0,-1.699502230E0,6.464373348E0
3.206437151E0,3.372085333E0,-5.419145107E0,-1.850250125E0,6.645413359E0
3.208626675E0,3.750151396E0,-5.349154949E0,-1.972284079E0,6.824001659E0
3.210800473E0,4.175475597E0,-5.279164791E0,-2.127219439E0,7.058982922E0
3.212998613E0,4.610969067E0,-5.170291424E0,-2.286940336E0,7.295412616E0
3.215220841E0,5.108078003E0,-5.038686275E0,-2.446661234E0,7.580697294E0
3.217421128E0,5.629713535E0,-4.887340069E0,-2.629712105E0,7.905387605E0
3.219618547E0,6.165107727E0,-4.716851711E0,-2.807977438E0,8.254815603E0
3.221802711E0,6.753143787E0,-4.523033142E0,-2.976671457E0,8.655827677E0
3.223979763E0,7.360920429E0,-4.304687977E0,-3.083152056E0,9.067486683E0
3.226199805E0,7.972885132E0,-4.081557274E0,-3.170490026E0,9.501474313E0
3.228389014E0,8.594420433E0,-3.834498405E0,-3.257827997E0,9.958959979E0
3.230572273E0,9.259027481E0,-3.592225075E0,-3.354139090E0,1.048255312E1
3.232788255E0,9.957133293E0,-3.373879910E0,-3.387638569E0,1.104552688E1
3.234984148E0,1.066481018E1,-3.160320520E0,-3.369094372E0,1.162224586E1
3.237186886E0,1.148674488E1,-2.955734253E0,-3.354139090E0,1.232606677E1
3.239377671E0,1.235713387E1,-2.747558594E0,-3.386442184E0,1.310403855E1
3.241570574E0,1.324606800E1,-2.544168711E0,-3.481556892E0,1.393026742E1
3.243755999E0,1.404945850E1,-2.373680115E0,-3.581457376E0,1.469178269E1
3.245964240E0,1.472363567E1,-2.269592285E0,-3.562314749E0,1.531752535E1
3.248160030E0,1.525364590E1,-2.131406784E0,-3.391227961E0,1.577076520E1
3.250359432E0,1.571725559E1,-1.949552298E0,-3.197409153E0,1.615723686E1
3.252552538E0,1.621915054E1,-1.758126378E0,-3.022135019E0,1.659171940E1
3.254742611E0,1.678325844E1,-1.524227977E0,-2.889333248E0,1.709822451E1
3.256920457E0,1.745743561E1,-1.285543919E0,-2.779861689E0,1.772406026E1
3.259141455E0,1.822732735E1,-1.004387259E0,-2.689532757E0,1.845204169E1
3.261336555E0,1.906361771E1,-6.711867452E-1,-2.588435888E0,1.925024706E1
3.263538824E0,2.002014923E1,-2.847459018E-1,-2.429911375E0,2.016908339E1
3.265728563E0,2.115315056E1,1.728814393E-1,-2.322832584E0,2.128100603E1
3.267924658E0,2.235315132E1,5.916253924E-1,-2.310868502E0,2.248006912E1
3.270120633E0,2.359143639E1,9.092726111E-1,-2.407777786E0,2.373141465E1
3.272317156E0,2.479622269E1,1.144965649E0,-2.542972326E0,2.495256127E1
3.274508226E0,2.596272469E1,1.515853167E0,-2.564507723E0,2.613307452E1
3.276684404E0,2.716272354E1,2.001596212E0,-2.495115757E0,2.735042121E1
3.278904569E0,2.842972374E1,2.722434044E0,-2.325823545E0,2.865432418E1
3.281100327E0,2.975474930E1,3.552743435E0,-2.200200319E0,3.004676311E1
3.283302822E0,3.101756096E1,4.444668293E0,-2.165504456E0,3.140913201E1
3.285498380E0,3.227558899E1,5.230710506E0,-2.216351986E0,3.277172856E1
3.287717088E0,3.357668686E1,6.087938786E0,-2.464009047E0,3.421298350E1
3.289881295E0,3.486880875E1,7.039085865E0,-2.950948477E0,3.569440643E1
3.292095303E0,3.611367416E1,8.057829857E0,-3.443271875E0,3.716156892E1
3.294290311E0,3.727718735E1,9.148359299E0,-3.912863255E0,3.858227149E1
3.296479529E0,3.836891174E1,1.031545830E1,-4.373481750E0,3.997135738E1
3.298668382E0,3.933620834E1,1.151605701E1,-4.868795872E0,4.127544099E1
3.300864895E0,4.008456421E1,1.276451206E1,-5.452046394E0,4.241968724E1
3.303061164E0,4.060799408E1,1.387358570E1,-6.175277233E0,4.335458006E1
3.305257433E0,4.088735580E1,1.487318707E1,-6.942774773E0,4.405893416E1
3.307447242E0,4.087539291E1,1.574955845E1,-7.721638680E0,4.447999597E1
3.309620185E0,4.059483337E1,1.647757530E1,-8.444271088E0,4.461789662E1
3.311820543E0,4.014737701E1,1.700040627E1,-9.253643036E0,4.456967134E1
3.314040951E0,3.945106506E1,1.734377670E1,-9.729216576E0,4.417975532E1
3.316242967E0,3.860580063E1,1.749631882E1,-1.012403297E1,4.357780465E1
3.318438921E0,3.754518127E1,1.741615868E1,-1.023709393E1,4.263521211E1
3.320631649E0,3.639782333E1,1.726541138E1,-1.021615601E1,4.156038759E1
3.322834561E0,3.509732437E1,1.695793343E1,-1.009591675E1,4.026563323E1
3.325022010E0,3.371965790E1,1.638305855E1,-9.802198410E0,3.874923264E1
3.327219123E0,3.227499008E1,1.575793362E1,-9.245866776E0,3.708737668E1
3.329412777E0,3.093082237E1,1.506042576E1,-8.602795601E0,3.546181452E1
3.331610084E0,2.968116951E1,1.418225956E1,-7.886145115E0,3.382749761E1
3.333805173E0,2.844108963E1,1.315155125E1,-7.001399040E0,3.210729618E1
3.336001359E0,2.719143867E1,1.203410339E1,-6.202196121E0,3.037533898E1
3.338197384E0,2.588435936E1,1.102672482E1,-5.385047436E0,2.864589771E1
3.340393775E0,2.463530540E1,1.019103146E1,-4.749752998E0,2.707979963E1
3.342583676E0,2.333839607E1,9.408578873E0,-3.937987804E0,2.546978279E1
3.344762956E0,2.209831619E1,8.702695847E0,-3.174079180E0,2.396137042E1
3.346983313E0,2.092642975E1,8.129614830E0,-2.477767944E0,2.258639930E1
3.349177823E0,1.977309036E1,7.642675400E0,-1.790429592E0,2.127419159E1
3.351379697E0,1.863889122E1,7.256234646E0,-1.146760225E0,2.003437711E1
3.353574825E0,1.754896164E1,6.964310169E0,-7.280163169E-1,1.889438219E1
3.355786790E0,1.653978920E1,6.766304016E0,-5.335994363E-1,1.787826125E1
3.357962317E0,1.561256981E1,6.586244106E0,-5.497509837E-1,1.695385424E1
3.360158403E0,1.478584957E1,6.439085960E0,-6.364908218E-1,1.613964981E1
3.362350226E0,1.405424404E1,6.311069489E0,-6.897311211E-1,1.542164397E1
3.364551032E0,1.337109280E1,6.230910301E0,-7.280163169E-1,1.476957594E1
3.366745806E0,1.273041439E1,6.165107727E0,-7.704889178E-1,1.416565060E1
3.368935645E0,1.210947704E1,6.127420425E0,-7.944171429E-1,1.359469801E1
3.371112342E0,1.154058361E1,6.119045734E0,-8.225327730E-1,1.308832881E1
3.373334073E0,1.106261730E1,6.110671043E0,-8.021938205E-1,1.266354283E1
3.375523730E0,1.056610680E1,6.111867428E0,-7.627122402E-1,1.223026027E1
3.377707333E0,1.009771156E1,6.141777515E0,-6.951149702E-1,1.183927340E1
3.379923459E0,9.624530792E0,6.190830231E0,-6.221339107E-1,1.146058561E1
3.382113268E0,9.203991890E0,6.248856544E0,-5.635097623E-1,1.113908515E1
3.384295273E0,8.802596092E0,6.297909260E0,-5.377869010E-1,1.083690794E1
3.386510311E0,8.415556908E0,6.336792469E0,-5.024927258E-1,1.054651771E1
3.388700406E0,8.028517723E0,6.347560406E0,-4.384847581E-1,1.024406603E1
3.390887092E0,7.641479015E0,6.358327866E0,-3.984049559E-1,9.948832157E0
3.393098568E0,7.244868755E0,6.354140759E0,-3.822534084E-1,9.644135302E0
3.395294918E0,6.862017155E0,6.317051888E0,-3.373879790E-1,9.333073161E0
3.397497230E0,6.474977970E0,6.279364586E0,-2.877369225E-1,9.024331103E0
3.399687894E0,6.111867428E0,6.232704639E0,-2.422732860E-1,8.732710171E0
3.401882473E0,5.762515068E0,6.151947021E0,-2.350948304E-1,8.432573845E0
3.404078386E0,5.442475319E0,6.105287075E0,-1.752742529E-1,8.180818353E0
3.406274442E0,5.112864017E0,6.049055576E0,-1.004985496E-1,7.921019618E0
3.408464576E0,4.825725079E0,5.997011662E0,-5.503492057E-2,7.697713962E0
3.410643297E0,4.534399033E0,5.969494343E0,1.974078640E-2,7.496400936E0
3.412863146E0,4.242474556E0,5.931807518E0,7.477571070E-2,7.293183269E0
3.415061337E0,3.964907169E0,5.909075737E0,1.351944804E-1,7.117298819E0
3.417262153E0,3.697509289E0,5.876173973E0,1.764706671E-1,6.944936098E0
3.419450965E0,3.424727440E0,5.843272686E0,2.410768867E-1,6.777220063E0
3.421641517E0,3.157329559E0,5.806184292E0,3.110669553E-1,6.616439271E0
3.423824206E0,2.889333248E0,5.758925915E0,3.619144261E-1,6.453251612E0
3.426039038E0,2.655434847E0,5.702694416E0,4.325026870E-1,6.305483043E0
3.428232053E0,2.397010088E0,5.665007591E0,4.929214716E-1,6.170975607E0
3.430423733E0,2.162513494E0,5.612963676E0,5.389832854E-1,6.039232470E0
3.432628882E0,1.919043779E0,5.551348686E0,5.898307562E-1,5.903228065E0
3.434824042E0,1.718046665E0,5.490331650E0,6.508477330E-1,5.789562051E0
3.437022142E0,1.502692580E0,5.433502197E0,6.879364848E-1,5.679285846E0
3.439215054E0,1.287936807E0,5.362315655E0,7.058826685E-1,5.559809416E0
3.441404782E0,1.106082320E0,5.305486202E0,7.286145091E-1,5.468316107E0
3.443582536E0,9.481559992E-1,5.239085197E0,7.704889178E-1,5.379653026E0
3.445803149E0,7.854440212E-1,5.182255745E0,8.219345808E-1,5.305494640E0
3.447999621E0,6.179464459E-1,5.143970490E0,8.404789567E-1,5.248685081E0
3.450203111E0,4.797609448E-1,5.111069202E0,8.919246197E-1,5.210444173E0
3.452392767E0,3.457628787E-1,5.092525005E0,9.098708034E-1,5.184710964E0
3.454583269E0,2.117647976E-1,5.068596363E0,9.092726111E-1,5.153861669E0
3.456765021E0,1.160518974E-1,5.054837704E0,9.230313301E-1,5.139731422E0
3.458979306E0,2.033899166E-2,5.045266628E0,8.985049129E-1,5.124689269E0
3.461171933E0,-6.041877344E-2,5.016552448E0,9.074779749E-1,5.098329645E0
3.463362648E0,-1.513460279E-1,5.006981373E0,8.781659007E-1,5.085660570E0
3.465568213E0,-2.183450609E-1,5.002195835E0,8.488538265E-1,5.078404332E0
3.467765326E0,-3.044866920E-1,4.987838745E0,8.243274093E-1,5.064658248E0
3.469964220E0,-3.714857101E-1,4.983053207E0,7.950153351E-1,5.059730258E0
3.472155790E0,-4.378865361E-1,4.973481655E0,7.657032609E-1,5.051095512E0
3.474347307E0,-4.905286431E-1,4.992624283E0,7.609176040E-1,5.074042883E0
3.476525408E0,-5.288137794E-1,4.983053207E0,7.507480979E-1,5.066960231E0
3.478725115E0,-5.527420044E-1,4.983053207E0,7.411768436E-1,5.068104784E0
3.480939673E0,-5.479564071E-1,4.978267670E0,6.933203340E-1,5.056095163E0
3.483140946E0,-5.335994363E-1,4.972883701E0,6.263213158E-1,5.040493930E0
3.485332577E0,-5.000999570E-1,4.958526611E0,5.503492355E-1,5.013977503E0
3.487497250E0,-4.474578202E-1,4.943571568E0,4.839483798E-1,4.987316350E0
3.489692165E0,-3.900300860E-1,4.947759151E0,4.025924206E-1,4.979410080E0
3.491887600E0,-2.991028428E-1,4.956732273E0,3.409772217E-1,4.977441391E0
3.494091946E0,-1.794617027E-1,4.999204636E0,2.703889608E-1,5.009726907E0
3.496317106E0,-5.982056633E-2,5.070391178E0,1.944168359E-1,5.074469736E0
3.498513577E0,7.417750359E-2,5.141577721E0,1.136590764E-1,5.143368755E0
3.500709947E0,1.842473447E-1,5.227120876E0,5.682953820E-2,5.230675801E0
3.502901964E0,3.086741269E-1,5.322235584E0,-1.914258115E-2,5.331213536E0
3.505098323E0,3.948157430E-1,5.426921844E0,-8.135596663E-2,5.441872745E0
3.507292192E0,5.054838061E-1,5.545366287E0,-1.573280841E-1,5.570579257E0
3.509482093E0,6.011967063E-1,5.669793129E0,-2.099701911E-1,5.705442935E0
3.511660235E0,7.208378315E-1,5.788238049E0,-3.002992272E-1,5.840675176E0
3.513880408E0,8.356932998E-1,5.892923832E0,-3.762713671E-1,5.963766823E0
3.516076393E0,9.649057388E-1,5.992824078E0,-4.618147612E-1,6.087549292E0
3.518278307E0,1.108475089E0,6.087938786E0,-5.186443329E-1,6.209726856E0
3.520469856E0,1.256830096E0,6.163312912E0,-5.946164131E-1,6.318197260E0
3.522666205E0,1.390828133E0,6.244668961E0,-6.370890141E-1,6.429321561E0
3.524860827E0,1.563111424E0,6.281757832E0,-6.981059909E-1,6.510848697E0
3.527056516E0,1.716252089E0,6.334399700E0,-7.208378315E-1,6.602253250E0
3.529252418E0,1.892722726E0,6.362515450E0,-7.579265833E-1,6.681201604E0
3.531449510E0,2.069791555E0,6.376274109E0,-7.375875711E-1,6.744252666E0
3.533644528E0,2.274976015E0,6.371488571E0,-7.357929349E-1,6.805348905E0
3.535840980E0,2.471187592E0,6.370890141E0,-7.250252366E-1,6.871729832E0
3.538037838E0,2.705085993E0,6.360720634E0,-7.328019142E-1,6.950773760E0
3.540234280E0,2.944368362E0,6.365506649E0,-7.070791125E-1,7.049038291E0
3.542422726E0,3.264408350E0,6.369693756E0,-7.142575383E-1,7.193019133E0
3.544599616E0,3.541377544E0,6.393023968E0,-6.933203340E-1,7.341171804E0
3.546820675E0,3.852444410E0,6.425925255E0,-7.435696125E-1,7.529059641E0
3.549012428E0,4.201198578E0,6.511468410E0,-6.981059909E-1,7.780529694E0
3.551202196E0,4.564309120E0,6.592226505E0,-6.813562512E-1,8.047025188E0
3.553402899E0,4.923232555E0,6.696314335E0,-6.981059909E-1,8.340635254E0
3.555575192E0,5.286343575E0,6.834499836E0,-6.861419082E-1,8.667560621E0
3.557780850E0,5.650052547E0,6.967899323E0,-6.747759581E-1,8.996112347E0
3.559997190E0,6.061019897E0,7.158128738E0,-6.532405615E-1,9.402206787E0
3.562199398E0,6.467201233E0,7.348956585E0,-6.508477330E-1,9.810986568E0
3.564394792E0,6.869195461E0,7.529614449E0,-6.580262184E-1,1.021341953E1
3.566596706E0,7.252047062E0,7.681559086E0,-7.226324677E-1,1.058870787E1
3.568798620E0,7.639086246E0,7.819744587E0,-7.686942816E-1,1.095878346E1
3.570961178E0,8.059624672E0,7.928617954E0,-8.279166222E-1,1.133604774E1
3.573155320E0,8.428119659E0,8.013563156E0,-8.829515576E-1,1.166318991E1
3.575370907E0,8.805587769E0,8.107481003E0,-1.004985452E0,1.201164518E1
3.577548285E0,9.178867340E0,8.163712502E0,-1.135992527E0,1.233646167E1
3.579767422E0,9.565906525E0,8.282156944E0,-1.224527001E0,1.271220507E1
3.581957109E0,1.003968525E1,8.472386360E0,-1.274178028E0,1.319849007E1
3.584159197E0,1.048415279E1,8.672187805E0,-1.314856052E0,1.366942382E1
3.586349952E0,1.093400288E1,8.891130447E0,-1.322034478E0,1.415458917E1
3.588539751E0,1.134975624E1,9.119645119E0,-1.324427366E0,1.461981538E1
3.590717923E0,1.182832050E1,9.300303459E0,-1.379462242E0,1.510985528E1
3.592939297E0,1.222971630E1,9.447462082E0,-1.462612867E0,1.552287786E1
3.595128394E0,1.261735344E1,9.551549911E0,-1.493719578E0,1.589531100E1
3.597314602E0,1.301396370E1,9.651450157E0,-1.534397483E0,1.627476934E1
3.599525469E0,1.343450260E1,9.793823242E0,-1.546361685E0,1.669718744E1
3.601721991E0,1.387956810E1,9.936196327E0,-1.552941918E0,1.714007108E1
3.603922930E0,1.438624763E1,1.014138031E1,-1.540379524E0,1.766874316E1
3.606113878E0,1.494556999E1,1.032622623E1,-1.570289850E0,1.823367272E1
3.608308612E0,1.547617912E1,1.053081226E1,-1.567298889E0,1.878474256E1
3.610497728E0,1.605942917E1,1.070668507E1,-1.563709617E0,1.936449220E1
3.612702206E0,1.662832260E1,1.086879826E1,-1.531406522E0,1.992428403E1
3.614897621E0,1.722592926E1,1.102552891E1,-1.517647743E0,2.050849047E1
3.617095772E0,1.779961014E1,1.118225861E1,-1.490130305E0,2.107343154E1
3.619289700E0,1.837807465E1,1.131027412E1,-1.520040631E0,2.163299452E1
3.621479234E0,1.896132469E1,1.141854954E1,-1.582852125E0,2.219055043E1
3.623657000E0,1.953021812E1,1.150828075E1,-1.650449395E0,2.272870276E1
3.625880642E0,2.009911156E1,1.156810093E1,-1.804188251E0,2.326048881E1
3.628076321E0,2.063929176E1,1.160459137E1,-1.939382792E0,2.375727491E1
3.630276547E0,2.115554237E1,1.164108181E1,-2.088335991E0,2.423701520E1
3.632466061E0,2.162393761E1,1.166381359E1,-2.243271112E0,2.467126852E1
3.634661730E0,2.206361961E1,1.166680527E1,-2.407179594E0,2.507413347E1
3.636858182E0,2.245604324E1,1.162193966E1,-2.576471806E0,2.541616742E1
3.639053891E0,2.285265350E1,1.162971592E1,-2.769692183E0,2.579079796E1
3.641245490E0,2.320140648E1,1.153699398E1,-2.991028309E0,2.608359145E1
3.643427619E0,2.355554390E1,1.145384407E1,-3.198605776E0,2.638721795E1
3.645648312E0,2.385644150E1,1.133779144E1,-3.425325632E0,2.663471741E1
3.647855934E0,2.415733910E1,1.118285656E1,-3.652045488E0,2.686951338E1
3.650039456E0,2.440619278E1,1.100399303E1,-3.869792461E0,2.705042333E1
3.652230201E0,2.460180664E1,1.084965611E1,-4.130609989E0,2.720341645E1
3.654416877E0,2.477408981E1,1.064207840E1,-4.382454872E0,2.731694107E1
3.656600979E0,2.486980247E1,1.042552853E1,-4.648656368E0,2.736436965E1
3.658818915E0,2.491765785E1,1.019462109E1,-4.924428940E0,2.736914270E1
3.661015550E0,2.490748978E1,9.958928108E0,-5.167898655E0,2.731795147E1
3.663217272E0,2.483091927E1,9.699306488E0,-5.411368370E0,2.720172799E1
3.665407071E0,2.468734932E1,9.430712700E0,-5.598008633E0,2.701372353E1
3.667602729E0,2.450549507E1,9.129216194E0,-5.751149178E0,2.677569035E1
3.669798194E0,2.429014015E1,8.837292671E0,-5.846862316E0,2.650083865E1
3.671994280E0,2.403650093E1,8.493324280E0,-5.943173409E0,2.617653996E1
