"Time (s)","Acceleration x (m/s^2)","Acceleration y (m/s^2)","Acceleration z (m/s^2)","Absolute acceleration (m/s^2)"
3.836524100E-2,0.000000000E0,4.307080805E-2,9.774680138E0,9.774775030E0
4.053430700E-2,-4.785645287E-3,4.307080805E-2,9.774680138E0,9.774776202E0
4.272390300E-2,4.785645287E-3,4.785645381E-2,9.803394318E0,9.803512294E0
4.492610300E-2,4.785645287E-3,5.264209956E-2,9.798608780E0,9.798751355E0
4.714736600E-2,4.785645287E-3,5.264209956E-2,9.803394318E0,9.803536823E0
4.934402100E-2,4.785645287E-3,5.264209956E-2,9.803394318E0,9.803536823E0
5.154005600E-2,-9.571290575E-3,6.281159073E-2,9.827322960E0,9.827528350E0
5.373646700E-2,9.571290575E-3,4.366901144E-2,9.812965393E0,9.813067227E0
5.592604300E-2,1.435693540E-2,3.828516230E-2,9.793823242E0,9.793908595E0
5.812015400E-2,0.000000000E0,4.785645381E-2,9.779465675E0,9.779582769E0
6.030918000E-2,0.000000000E0,3.828516230E-2,9.779465675E0,9.779540615E0
6.248618300E-2,0.000000000E0,4.785645381E-2,9.769894600E0,9.770011808E0
6.470777100E-2,-9.571290575E-3,4.785645381E-2,9.765109062E0,9.765231019E0
6.690400800E-2,0.000000000E0,4.307080805E-2,9.784252167E0,9.784346966E0
6.910628900E-2,4.785645287E-3,4.307080805E-2,9.774680138E0,9.774776202E0
7.129726800E-2,0.000000000E0,4.785645381E-2,9.789037704E0,9.789154684E0
7.349796300E-2,0.000000000E0,4.785645381E-2,9.793823242E0,9.793940164E0
7.570472900E-2,0.000000000E0,4.785645381E-2,9.793823242E0,9.793940164E0
7.788314500E-2,-4.785645287E-3,4.785645381E-2,9.784252167E0,9.784370373E0
8.007895600E-2,0.000000000E0,3.828516230E-2,9.784252167E0,9.784327070E0
8.227183800E-2,-4.785645287E-3,4.785645381E-2,9.793823242E0,9.793941333E0
8.447109600E-2,1.435693540E-2,3.409772366E-2,9.808179855E0,9.808249632E0
8.666693800E-2,4.785645287E-3,4.785645381E-2,9.789037704E0,9.789155853E0
8.886445800E-2,-4.785645287E-3,3.888336942E-2,9.798608780E0,9.798687098E0
9.105952600E-2,4.785645287E-3,4.307080805E-2,9.774680138E0,9.774776202E0
9.325461500E-2,-9.571290575E-3,5.264209956E-2,9.769894600E0,9.770041110E0
9.544375300E-2,-4.785645287E-3,4.307080805E-2,9.779465675E0,9.779561692E0
9.762120300E-2,0.000000000E0,4.785645381E-2,9.798608780E0,9.798725645E0
9.984236300E-2,0.000000000E0,5.264209956E-2,9.774680138E0,9.774821890E0
1.020437480E-1,1.914258115E-2,4.785645381E-2,9.784252167E0,9.784387929E0
1.042633130E-1,4.785645287E-3,4.785645381E-2,9.779465675E0,9.779583940E0
1.064244160E-1,-1.914258115E-2,4.785645381E-2,9.793823242E0,9.793958872E0
1.086009990E-1,4.785645287E-3,5.742774159E-2,9.789037704E0,9.789207324E0
1.108156400E-1,-4.785645287E-3,5.742774159E-2,9.798608780E0,9.798778234E0
1.130174730E-1,-9.571290575E-3,4.785645381E-2,9.789037704E0,9.789159363E0
1.152203850E-1,-9.571290575E-3,3.828516230E-2,9.793823242E0,9.793902749E0
1.174092780E-1,9.571290575E-3,3.828516230E-2,9.798608780E0,9.798688248E0
1.196047330E-1,4.785645287E-3,3.828516230E-2,9.789037704E0,9.789113741E0
1.218008190E-1,-4.785645287E-3,5.264209956E-2,9.779465675E0,9.779608529E0
1.239981560E-1,9.571290575E-3,3.828516230E-2,9.803394318E0,9.803473747E0
1.261941190E-1,0.000000000E0,5.264209956E-2,9.784252167E0,9.784393781E0
1.283823010E-1,-4.785645287E-3,3.349951655E-2,9.789037704E0,9.789096194E0
1.305589680E-1,-1.914258115E-2,4.785645381E-2,9.784252167E0,9.784387929E0
1.327797420E-1,9.571290575E-3,4.307080805E-2,9.789037704E0,9.789137137E0
1.349712090E-1,0.000000000E0,3.828516230E-2,9.789037704E0,9.789112571E0
1.371582200E-1,-4.785645287E-3,4.785645381E-2,9.774680138E0,9.774798460E0
1.393682020E-1,0.000000000E0,5.742774159E-2,9.789037704E0,9.789206154E0
1.415681740E-1,-9.571290575E-3,5.264209956E-2,9.798608780E0,9.798754861E0
1.437787750E-1,9.571290575E-3,5.742774159E-2,9.760323524E0,9.760497162E0
1.459559710E-1,0.000000000E0,4.307080805E-2,9.793823242E0,9.793917949E0
1.481511710E-1,4.785645287E-3,4.307080805E-2,9.793823242E0,9.793919118E0
1.503437980E-1,1.435693540E-2,3.828516230E-2,9.789037704E0,9.789123099E0
1.525432710E-1,-1.914258115E-2,4.785645381E-2,9.779465675E0,9.779601504E0
1.547392550E-1,-9.571290575E-3,3.409772366E-2,9.798608780E0,9.798672782E0
1.569355650E-1,-4.785645287E-3,4.785645381E-2,9.784252167E0,9.784370373E0
1.591330750E-1,0.000000000E0,4.785645381E-2,9.789037704E0,9.789154684E0
1.613231990E-1,1.435693540E-2,4.307080805E-2,9.784252167E0,9.784357500E0
1.635033850E-1,0.000000000E0,4.785645381E-2,9.784252167E0,9.784369203E0
1.657182800E-1,-9.571290575E-3,4.366901144E-2,9.803394318E0,9.803496251E0
1.679199100E-1,0.000000000E0,4.785645381E-2,9.784252167E0,9.784369203E0
1.701385170E-1,-9.571290575E-3,4.307080805E-2,9.774680138E0,9.774779716E0
1.723062820E-1,4.785645287E-3,4.307080805E-2,9.793823242E0,9.793919118E0
1.744959690E-1,0.000000000E0,4.307080805E-2,9.789037704E0,9.789132458E0
1.766638150E-1,0.000000000E0,4.785645381E-2,9.798608780E0,9.798725645E0
1.788676320E-1,-1.914258115E-2,4.785645381E-2,9.784252167E0,9.784387929E0
1.810645930E-1,-9.571290575E-3,2.871387079E-2,9.784252167E0,9.784298981E0
1.832852150E-1,-9.571290575E-3,4.785645381E-2,9.779465675E0,9.779587453E0
1.854612500E-1,0.000000000E0,3.888336942E-2,9.803394318E0,9.803471429E0
1.876839780E-1,4.785645287E-3,4.307080805E-2,9.798608780E0,9.798704609E0
1.898735640E-1,-9.571290575E-3,4.845465720E-2,9.798608780E0,9.798733259E0
1.920814490E-1,-1.914258115E-2,3.888336942E-2,9.793823242E0,9.793919137E0
1.942863740E-1,-9.571290575E-3,4.307080805E-2,9.793823242E0,9.793922626E0
1.964584430E-1,4.785645287E-3,3.349951655E-2,9.779465675E0,9.779524222E0
1.986502460E-1,0.000000000E0,3.828516230E-2,9.793823242E0,9.793898072E0
2.008217660E-1,-4.785645287E-3,3.349951655E-2,9.793823242E0,9.793881703E0
2.030496290E-1,0.000000000E0,4.307080805E-2,9.793823242E0,9.793917949E0
2.052445350E-1,4.785645287E-3,4.307080805E-2,9.769894600E0,9.769990711E0
2.074403250E-1,-9.571290575E-3,4.785645381E-2,9.765109062E0,9.765231019E0
2.096114180E-1,0.000000000E0,3.828516230E-2,9.769894600E0,9.769969613E0
2.118335950E-1,-4.785645287E-3,4.785645381E-2,9.784252167E0,9.784370373E0
2.140228760E-1,-9.571290575E-3,4.307080805E-2,9.789037704E0,9.789137137E0
2.162050560E-1,-9.571290575E-3,5.264209956E-2,9.784252167E0,9.784398462E0
2.184194620E-1,0.000000000E0,3.828516230E-2,9.779465675E0,9.779540615E0
2.206158620E-1,0.000000000E0,4.307080805E-2,9.784252167E0,9.784346966E0
2.228156310E-1,9.571290575E-3,4.307080805E-2,9.774680138E0,9.774779716E0
2.249961530E-1,0.000000000E0,6.281159073E-2,9.803394318E0,9.803595536E0
2.272090130E-1,4.785645287E-3,4.785645381E-2,9.789037704E0,9.789155853E0
2.294226560E-1,4.785645287E-3,5.264209956E-2,9.789037704E0,9.789180419E0
2.315990370E-1,9.571290575E-3,4.307080805E-2,9.798608780E0,9.798708115E0
2.337910750E-1,4.785645287E-3,4.307080805E-2,9.793823242E0,9.793919118E0
2.359811690E-1,-4.785645287E-3,5.264209956E-2,9.793823242E0,9.793965887E0
2.381825440E-1,-9.571290575E-3,4.845465720E-2,9.798608780E0,9.798733259E0
2.403810000E-1,4.785645287E-3,4.307080805E-2,9.784252167E0,9.784348137E0
2.425776960E-1,-4.785645287E-3,3.828516230E-2,9.789037704E0,9.789113741E0
2.447475370E-1,1.435693540E-2,3.828516230E-2,9.798608780E0,9.798694091E0
2.469682390E-1,9.571290575E-3,4.785645381E-2,9.779465675E0,9.779587453E0
2.491610090E-1,4.785645287E-3,3.828516230E-2,9.784252167E0,9.784328241E0
2.513638390E-1,0.000000000E0,4.785645381E-2,9.789037704E0,9.789154684E0
2.535539840E-1,-1.435693540E-2,4.785645381E-2,9.789037704E0,9.789165212E0
2.557499670E-1,4.785645287E-3,5.264209956E-2,9.798608780E0,9.798751355E0
2.579463170E-1,1.435693540E-2,4.785645381E-2,9.803394318E0,9.803521638E0
2.601356080E-1,-9.571290575E-3,5.264209956E-2,9.793823242E0,9.793969394E0
2.623125890E-1,-1.435693540E-2,3.888336942E-2,9.798608780E0,9.798696447E0
2.645353580E-1,-4.785645287E-3,4.307080805E-2,9.789037704E0,9.789133627E0
2.667305990E-1,9.571290575E-3,3.349951655E-2,9.789037704E0,9.789099704E0
2.689316290E-1,4.785645287E-3,5.264209956E-2,9.789037704E0,9.789180419E0
2.711203380E-1,-1.435693540E-2,4.307080805E-2,9.789037704E0,9.789142986E0
2.733192420E-1,-9.571290575E-3,4.785645381E-2,9.774680138E0,9.774801975E0
2.755228250E-1,0.000000000E0,3.828516230E-2,9.769894600E0,9.769969613E0
2.777089120E-1,-4.785645287E-3,5.264209956E-2,9.784252167E0,9.784394951E0
2.799053430E-1,0.000000000E0,5.264209956E-2,9.789037704E0,9.789179249E0
2.820994850E-1,1.435693540E-2,4.307080805E-2,9.789037704E0,9.789142986E0
2.842977580E-1,-4.785645287E-3,4.366901144E-2,9.803394318E0,9.803492747E0
2.864923790E-1,-4.785645287E-3,3.828516230E-2,9.793823242E0,9.793899242E0
2.886885460E-1,-9.571290575E-3,3.888336942E-2,9.798608780E0,9.798690604E0
2.908836750E-1,4.785645287E-3,5.264209956E-2,9.784252167E0,9.784394951E0
2.930800760E-1,4.785645287E-3,5.742774159E-2,9.784252167E0,9.784421869E0
2.952705070E-1,-9.571290575E-3,5.802594870E-2,9.798608780E0,9.798785264E0
2.974524410E-1,1.435693540E-2,4.307080805E-2,9.774680138E0,9.774785574E0
2.996701340E-1,0.000000000E0,4.307080805E-2,9.784252167E0,9.784346966E0
3.018638490E-1,-9.571290575E-3,4.785645381E-2,9.765109062E0,9.765231019E0
3.040617050E-1,-9.571290575E-3,5.264209956E-2,9.784252167E0,9.784398462E0
3.062548200E-1,4.785645287E-3,4.307080805E-2,9.798608780E0,9.798704609E0
3.084443950E-1,-4.785645287E-3,3.349951655E-2,9.793823242E0,9.793881703E0
3.106223140E-1,-9.571290575E-3,4.307080805E-2,9.789037704E0,9.789137137E0
3.128440750E-1,1.435693540E-2,5.264209956E-2,9.798608780E0,9.798760704E0
3.150391930E-1,9.571290575E-3,5.264209956E-2,9.784252167E0,9.784398462E0
3.172424300E-1,-9.571290575E-3,2.931207791E-2,9.798608780E0,9.798657297E0
3.194313640E-1,-4.785645287E-3,3.828516230E-2,9.798608780E0,9.798684742E0
3.216262600E-1,0.000000000E0,4.785645381E-2,9.798608780E0,9.798725645E0
3.238219590E-1,-4.785645287E-3,5.264209956E-2,9.793823242E0,9.793965887E0
3.260178620E-1,4.785645287E-3,3.828516230E-2,9.784252167E0,9.784328241E0
3.282078240E-1,-4.785645287E-3,3.828516230E-2,9.798608780E0,9.798684742E0
3.303850700E-1,-4.785645287E-3,3.828516230E-2,9.798608780E0,9.798684742E0
3.326063420E-1,0.000000000E0,3.828516230E-2,9.789037704E0,9.789112571E0
3.348031400E-1,1.435693540E-2,4.307080805E-2,9.793823242E0,9.793928472E0
3.370062950E-1,0.000000000E0,3.828516230E-2,9.779465675E0,9.779540615E0
3.391938260E-1,4.785645287E-3,4.785645381E-2,9.779465675E0,9.779583940E0
3.413872360E-1,0.000000000E0,4.785645381E-2,9.793823242E0,9.793940164E0
3.435756320E-1,-4.785645287E-3,4.785645381E-2,9.760323524E0,9.760442021E0
3.457810350E-1,0.000000000E0,4.785645381E-2,9.784252167E0,9.784369203E0
3.479769170E-1,-9.571290575E-3,4.307080805E-2,9.784252167E0,9.784351648E0
3.501757290E-1,-9.571290575E-3,3.828516230E-2,9.793823242E0,9.793902749E0
3.523640840E-1,-9.571290575E-3,4.307080805E-2,9.789037704E0,9.789137137E0
3.545344950E-1,-9.571290575E-3,4.785645381E-2,9.798608780E0,9.798730319E0
3.567359610E-1,9.571290575E-3,4.785645381E-2,9.798608780E0,9.798730319E0
3.589569280E-1,4.785645287E-3,4.366901144E-2,9.817750931E0,9.817849216E0
3.611627900E-1,-4.785645287E-3,4.307080805E-2,9.784252167E0,9.784348137E0
3.633728530E-1,4.785645287E-3,4.785645381E-2,9.784252167E0,9.784370373E0
3.655442090E-1,0.000000000E0,4.307080805E-2,9.765109062E0,9.765204048E0
3.677381380E-1,4.785645287E-3,3.828516230E-2,9.779465675E0,9.779541786E0
3.699238070E-1,-4.785645287E-3,5.742774159E-2,9.774680138E0,9.774850006E0
3.721265450E-1,0.000000000E0,4.785645381E-2,9.784252167E0,9.784369203E0
3.742962530E-1,4.785645287E-3,5.742774159E-2,9.779465675E0,9.779635461E0
3.764944040E-1,9.571290575E-3,6.221338734E-2,9.793823242E0,9.794025516E0
3.786893610E-1,0.000000000E0,4.845465720E-2,9.808179855E0,9.808299543E0
3.809006440E-1,0.000000000E0,5.742774159E-2,9.798608780E0,9.798777065E0
3.831179700E-1,0.000000000E0,3.828516230E-2,9.779465675E0,9.779540615E0
3.853135260E-1,0.000000000E0,5.264209956E-2,9.793823242E0,9.793964718E0
3.875101410E-1,0.000000000E0,4.785645381E-2,9.793823242E0,9.793940164E0
3.897002260E-1,4.785645287E-3,4.785645381E-2,9.789037704E0,9.789155853E0
3.918948150E-1,-1.435693540E-2,4.307080805E-2,9.779465675E0,9.779571060E0
3.940845220E-1,-4.785645287E-3,4.307080805E-2,9.779465675E0,9.779561692E0
3.962617380E-1,4.785645287E-3,4.785645381E-2,9.784252167E0,9.784370373E0
3.984823000E-1,-4.785645287E-3,4.307080805E-2,9.789037704E0,9.789133627E0
4.006782110E-1,4.785645287E-3,2.871387079E-2,9.798608780E0,9.798652020E0
4.028809700E-1,0.000000000E0,4.307080805E-2,9.789037704E0,9.789132458E0
4.050715330E-1,1.435693540E-2,4.307080805E-2,9.793823242E0,9.793928472E0
4.072674150E-1,0.000000000E0,3.828516230E-2,9.779465675E0,9.779540615E0
4.094615980E-1,-9.571290575E-3,3.888336942E-2,9.798608780E0,9.798690604E0
4.116575620E-1,0.000000000E0,3.888336942E-2,9.803394318E0,9.803471429E0
4.138532910E-1,0.000000000E0,3.349951655E-2,9.789037704E0,9.789095024E0
4.160495600E-1,0.000000000E0,4.307080805E-2,9.789037704E0,9.789132458E0
4.182459500E-1,-9.571290575E-3,4.785645381E-2,9.774680138E0,9.774801975E0
4.204414560E-1,-4.785645287E-3,4.307080805E-2,9.789037704E0,9.789133627E0
4.226385590E-1,-4.785645287E-3,4.785645381E-2,9.784252167E0,9.784370373E0
4.248343190E-1,-4.785645287E-3,4.845465720E-2,9.803394318E0,9.803515232E0
4.270240070E-1,4.785645287E-3,3.888336942E-2,9.803394318E0,9.803472597E0
4.292083030E-1,0.000000000E0,3.828516230E-2,9.789037704E0,9.789112571E0
4.314411820E-1,9.571290575E-3,5.264209956E-2,9.793823242E0,9.793969394E0
4.336168510E-1,0.000000000E0,5.264209956E-2,9.793823242E0,9.793964718E0
4.358178400E-1,0.000000000E0,5.264209956E-2,9.779465675E0,9.779607358E0
4.380038650E-1,0.000000000E0,4.785645381E-2,9.789037704E0,9.789154684E0
4.402060240E-1,-1.914258115E-2,4.785645381E-2,9.784252167E0,9.784387929E0
4.423959440E-1,0.000000000E0,5.264209956E-2,9.784252167E0,9.784393781E0
4.445911360E-1,1.435693540E-2,4.307080805E-2,9.789037704E0,9.789142986E0
4.467923180E-1,4.785645287E-3,4.785645381E-2,9.784252167E0,9.784370373E0
4.489883320E-1,1.435693540E-2,5.264209956E-2,9.789037704E0,9.789189777E0
4.511844680E-1,1.435693540E-2,4.307080805E-2,9.789037704E0,9.789142986E0
4.533792420E-1,-9.571290575E-3,4.785645381E-2,9.784252167E0,9.784373885E0
4.555758870E-1,-4.785645287E-3,4.785645381E-2,9.774680138E0,9.774798460E0
4.577730620E-1,9.571290575E-3,4.785645381E-2,9.779465675E0,9.779587453E0
4.599684540E-1,-1.435693540E-2,3.828516230E-2,9.769894600E0,9.769980162E0
4.621577550E-1,-1.435693540E-2,3.349951655E-2,9.774680138E0,9.774748085E0
4.643347980E-1,4.785645287E-3,4.785645381E-2,9.789037704E0,9.789155853E0
4.665591120E-1,-9.571290575E-3,4.366901144E-2,9.803394318E0,9.803496251E0
4.687678720E-1,9.571290575E-3,4.307080805E-2,9.803394318E0,9.803493604E0
4.709521280E-1,0.000000000E0,4.785645381E-2,9.793823242E0,9.793940164E0
4.731448670E-1,0.000000000E0,5.324030295E-2,9.803394318E0,9.803538885E0
4.753436800E-1,0.000000000E0,5.742774159E-2,9.803394318E0,9.803562520E0
4.775358070E-1,0.000000000E0,4.785645381E-2,9.789037704E0,9.789154684E0
4.797299910E-1,9.571290575E-3,4.307080805E-2,9.784252167E0,9.784351648E0
4.819240220E-1,4.785645287E-3,2.931207791E-2,9.808179855E0,9.808224823E0
4.841218470E-1,-1.435693540E-2,4.366901144E-2,9.803394318E0,9.803502091E0
4.863180740E-1,0.000000000E0,5.264209956E-2,9.769894600E0,9.770036422E0
4.885137220E-1,-4.785645287E-3,4.785645381E-2,9.779465675E0,9.779583940E0
4.907098900E-1,-9.571290575E-3,4.307080805E-2,9.784252167E0,9.784351648E0
4.929069020E-1,0.000000000E0,5.264209956E-2,9.769894600E0,9.770036422E0
4.950978290E-1,-1.435693540E-2,4.307080805E-2,9.769894600E0,9.770000087E0
4.972787170E-1,1.435693540E-2,4.785645381E-2,9.784252167E0,9.784379736E0
4.994928690E-1,1.435693540E-2,4.307080805E-2,9.798608780E0,9.798713958E0
5.016894230E-1,-9.571290575E-3,5.264209956E-2,9.789037704E0,9.789183928E0
5.038912050E-1,4.785645287E-3,4.785645381E-2,9.798608780E0,9.798726813E0
5.060747980E-1,0.000000000E0,4.366901144E-2,9.803394318E0,9.803491578E0
5.082543130E-1,-4.785645287E-3,4.785645381E-2,9.789037704E0,9.789155853E0
5.104850970E-1,0.000000000E0,3.828516230E-2,9.793823242E0,9.793898072E0
5.126697080E-1,9.571290575E-3,5.264209956E-2,9.774680138E0,9.774826576E0
5.148707690E-1,0.000000000E0,3.349951655E-2,9.793823242E0,9.793880534E0
5.170569460E-1,-9.571290575E-3,4.785645381E-2,9.789037704E0,9.789159363E0
5.192557370E-1,-4.785645287E-3,4.785645381E-2,9.793823242E0,9.793941333E0
5.214520880E-1,-4.785645287E-3,4.307080805E-2,9.784252167E0,9.784348137E0
5.236479700E-1,0.000000000E0,3.828516230E-2,9.789037704E0,9.789112571E0
5.258444940E-1,9.571290575E-3,4.307080805E-2,9.789037704E0,9.789137137E0
5.280348100E-1,-1.435693540E-2,3.409772366E-2,9.798608780E0,9.798678625E0
5.302114770E-1,-9.571290575E-3,4.307080805E-2,9.784252167E0,9.784351648E0
5.324315190E-1,0.000000000E0,4.785645381E-2,9.784252167E0,9.784369203E0
5.346210130E-1,0.000000000E0,3.828516230E-2,9.789037704E0,9.789112571E0
5.368037920E-1,9.571290575E-3,4.785645381E-2,9.793823242E0,9.793944841E0
5.390188400E-1,-9.571290575E-3,4.307080805E-2,9.774680138E0,9.774779716E0
5.412085680E-1,-4.785645287E-3,3.828516230E-2,9.774680138E0,9.774756286E0
5.433920500E-1,9.571290575E-3,4.307080805E-2,9.784252167E0,9.784351648E0
5.456019800E-1,-9.571290575E-3,3.828516230E-2,9.793823242E0,9.793902749E0
5.477722680E-1,9.571290575E-3,4.307080805E-2,9.784252167E0,9.784351648E0
5.499621280E-1,-1.914258115E-2,5.264209956E-2,9.788438797E0,9.788599068E0
5.521695370E-1,-1.435693540E-2,5.264209956E-2,9.784252167E0,9.784404314E0
5.543983870E-1,-4.785645287E-3,3.828516230E-2,9.774680138E0,9.774756286E0
5.565865990E-1,-4.785645287E-3,4.307080805E-2,9.769894600E0,9.769990711E0
5.587891040E-1,4.785645287E-3,4.307080805E-2,9.774680138E0,9.774776202E0
5.609812630E-1,4.785645287E-3,5.742774159E-2,9.789037704E0,9.789207324E0
5.631872860E-1,0.000000000E0,4.307080805E-2,9.784252167E0,9.784346966E0
5.653706570E-1,9.571290575E-3,4.785645381E-2,9.789037704E0,9.789159363E0
5.675657770E-1,-1.435693540E-2,4.785645381E-2,9.789037704E0,9.789165212E0
5.697581800E-1,9.571290575E-3,5.264209956E-2,9.793823242E0,9.793969394E0
5.719572350E-1,1.435693540E-2,3.349951655E-2,9.784252167E0,9.784320048E0
5.741480210E-1,-9.571290575E-3,2.392822690E-2,9.779465675E0,9.779499633E0
5.763245960E-1,-4.785645287E-3,3.888336942E-2,9.798608780E0,9.798687098E0
5.785457980E-1,0.000000000E0,4.307080805E-2,9.798608780E0,9.798703441E0
5.807367560E-1,-9.571290575E-3,4.785645381E-2,9.779465675E0,9.779587453E0
5.829136260E-1,-4.785645287E-3,4.785645381E-2,9.779465675E0,9.779583940E0
5.851129570E-1,0.000000000E0,4.307080805E-2,9.798608780E0,9.798703441E0
5.873282180E-1,0.000000000E0,4.307080805E-2,9.798608780E0,9.798703441E0
5.895307520E-1,0.000000000E0,3.349951655E-2,9.798608780E0,9.798666044E0
5.917252200E-1,0.000000000E0,4.307080805E-2,9.784252167E0,9.784346966E0
5.939156410E-1,4.785645287E-3,4.785645381E-2,9.798608780E0,9.798726813E0
5.961097720E-1,-4.785645287E-3,4.785645381E-2,9.784252167E0,9.784370373E0
5.983093680E-1,-9.571290575E-3,4.307080805E-2,9.793823242E0,9.793922626E0
6.005048840E-1,0.000000000E0,4.785645381E-2,9.779465675E0,9.779582769E0
6.027004820E-1,9.571290575E-3,4.307080805E-2,9.789037704E0,9.789137137E0
6.048955180E-1,-9.571290575E-3,5.264209956E-2,9.789037704E0,9.789183928E0
6.070912180E-1,-9.571290575E-3,3.828516230E-2,9.793823242E0,9.793902749E0
6.092874160E-1,-9.571290575E-3,5.264209956E-2,9.793823242E0,9.793969394E0
6.114835120E-1,4.785645287E-3,5.742774159E-2,9.774680138E0,9.774850006E0
6.136795160E-1,-2.871387079E-2,5.324030295E-2,9.793225288E0,9.793412100E0
6.158763840E-1,-4.785645287E-3,4.785645381E-2,9.793823242E0,9.793941333E0
6.180720840E-1,0.000000000E0,4.785645381E-2,9.769894600E0,9.770011808E0
6.202668270E-1,0.000000000E0,4.307080805E-2,9.774680138E0,9.774775030E0
6.224626680E-1,-4.785645287E-3,4.307080805E-2,9.793823242E0,9.793919118E0
6.246580610E-1,0.000000000E0,4.785645381E-2,9.779465675E0,9.779582769E0
6.268545950E-1,-4.785645287E-3,5.264209956E-2,9.779465675E0,9.779608529E0
6.290439360E-1,-4.785645287E-3,4.845465720E-2,9.808179855E0,9.808300711E0
6.312212540E-1,4.785645287E-3,3.828516230E-2,9.765109062E0,9.765185285E0
6.334439000E-1,9.571290575E-3,4.307080805E-2,9.774680138E0,9.774779716E0
6.356402300E-1,-4.785645287E-3,4.307080805E-2,9.779465675E0,9.779561692E0
6.378402520E-1,-4.785645287E-3,4.307080805E-2,9.789037704E0,9.789133627E0
6.400301320E-1,0.000000000E0,3.888336942E-2,9.803394318E0,9.803471429E0
6.422272450E-1,-9.571290575E-3,3.349951655E-2,9.774680138E0,9.774742228E0
6.444218360E-1,-9.571290575E-3,5.264209956E-2,9.784252167E0,9.784398462E0
6.466178910E-1,0.000000000E0,4.785645381E-2,9.798608780E0,9.798725645E0
6.488137420E-1,0.000000000E0,4.307080805E-2,9.793823242E0,9.793917949E0
6.510121170E-1,0.000000000E0,5.264209956E-2,9.789037704E0,9.789179249E0
6.532063510E-1,-4.785645287E-3,5.264209956E-2,9.784252167E0,9.784394951E0
6.554008810E-1,4.785645287E-3,4.785645381E-2,9.793823242E0,9.793941333E0
6.575964880E-1,9.571290575E-3,4.785645381E-2,9.779465675E0,9.779587453E0
6.597925630E-1,-4.785645287E-3,3.828516230E-2,9.779465675E0,9.779541786E0
6.619825250E-1,0.000000000E0,4.785645381E-2,9.784252167E0,9.784369203E0
6.641599140E-1,4.785645287E-3,4.307080805E-2,9.774680138E0,9.774776202E0
6.663809930E-1,1.435693540E-2,4.307080805E-2,9.789037704E0,9.789142986E0
6.685726540E-1,4.785645287E-3,4.785645381E-2,9.784252167E0,9.784370373E0
6.707593610E-1,-9.571290575E-3,4.785645381E-2,9.765109062E0,9.765231019E0
6.729619870E-1,-4.785645287E-3,5.264209956E-2,9.793823242E0,9.793965887E0
6.751331700E-1,4.785645287E-3,4.307080805E-2,9.769894600E0,9.769990711E0
6.773392750E-1,0.000000000E0,3.349951655E-2,9.774680138E0,9.774737542E0
6.795559200E-1,-9.571290575E-3,5.264209956E-2,9.793823242E0,9.793969394E0
6.817578550E-1,-9.571290575E-3,3.349951655E-2,9.769894600E0,9.769956721E0
6.839541130E-1,0.000000000E0,3.828516230E-2,9.779465675E0,9.779540615E0
6.861448180E-1,-4.785645287E-3,4.845465720E-2,9.808179855E0,9.808300711E0
6.883410560E-1,9.571290575E-3,3.828516230E-2,9.789037704E0,9.789117250E0
6.905349840E-1,0.000000000E0,4.785645381E-2,9.789037704E0,9.789154684E0
6.927311210E-1,-4.785645287E-3,4.785645381E-2,9.789037704E0,9.789155853E0
6.949267390E-1,-4.785645287E-3,6.221338734E-2,9.784252167E0,9.784451128E0
6.971228450E-1,-4.785645287E-3,5.324030295E-2,9.803394318E0,9.803540053E0
6.993186760E-1,0.000000000E0,4.307080805E-2,9.779465675E0,9.779560521E0
7.015148540E-1,-9.571290575E-3,4.366901144E-2,9.798608780E0,9.798710763E0
7.037122210E-1,-9.571290575E-3,3.888336942E-2,9.798608780E0,9.798690604E0
7.059077980E-1,0.000000000E0,3.828516230E-2,9.793823242E0,9.793898072E0
7.080960810E-1,-4.785645287E-3,4.785645381E-2,9.793823242E0,9.793941333E0
7.102733480E-1,-4.785645287E-3,3.349951655E-2,9.784252167E0,9.784310685E0
7.124942650E-1,-1.435693540E-2,4.307080805E-2,9.793823242E0,9.793928472E0
7.146933820E-1,-1.435693540E-2,5.264209956E-2,9.769894600E0,9.770046970E0
7.169061400E-1,0.000000000E0,4.307080805E-2,9.779465675E0,9.779560521E0
7.190759090E-1,0.000000000E0,4.307080805E-2,9.774680138E0,9.774775030E0
7.212549150E-1,4.785645287E-3,3.349951655E-2,9.798608780E0,9.798667213E0
7.234711220E-1,4.785645287E-3,3.828516230E-2,9.789037704E0,9.789113741E0
7.256696490E-1,0.000000000E0,4.307080805E-2,9.769894600E0,9.769989539E0
7.278654400E-1,-9.571290575E-3,4.307080805E-2,9.769894600E0,9.769994227E0
7.300383620E-1,-4.785645287E-3,4.785645381E-2,9.798608780E0,9.798726813E0
7.322572460E-1,-4.785645287E-3,4.366901144E-2,9.798608780E0,9.798707257E0
7.344532390E-1,4.785645287E-3,4.785645381E-2,9.789037704E0,9.789155853E0
7.366545530E-1,9.571290575E-3,5.264209956E-2,9.803394318E0,9.803540327E0
7.388460920E-1,-4.785645287E-3,4.785645381E-2,9.798608780E0,9.798726813E0
7.410351990E-1,4.785645287E-3,4.307080805E-2,9.798608780E0,9.798704609E0
7.432065950E-1,-9.571290575E-3,4.785645381E-2,9.793823242E0,9.793944841E0
7.454133930E-1,0.000000000E0,4.307080805E-2,9.784252167E0,9.784346966E0
7.476283490E-1,0.000000000E0,3.828516230E-2,9.784252167E0,9.784327070E0
7.498303550E-1,-4.785645287E-3,3.828516230E-2,9.784252167E0,9.784328241E0
7.520249150E-1,0.000000000E0,4.307080805E-2,9.784252167E0,9.784346966E0
7.542160570E-1,0.000000000E0,2.871387079E-2,9.779465675E0,9.779507829E0
7.564135060E-1,-4.785645287E-3,3.828516230E-2,9.784252167E0,9.784328241E0
7.586092040E-1,-9.571290575E-3,3.828516230E-2,9.784252167E0,9.784331752E0
7.607996030E-1,-9.571290575E-3,4.307080805E-2,9.779465675E0,9.779565205E0
7.629857410E-1,-1.435693540E-2,4.307080805E-2,9.793823242E0,9.793928472E0
7.652017950E-1,4.785645287E-3,5.742774159E-2,9.793823242E0,9.793992779E0
7.673914610E-1,9.571290575E-3,4.307080805E-2,9.789037704E0,9.789137137E0
7.695909950E-1,4.785645287E-3,2.871387079E-2,9.789037704E0,9.789080987E0
7.717814550E-1,4.785645287E-3,4.785645381E-2,9.798608780E0,9.798726813E0
7.739803190E-1,4.785645287E-3,4.785645381E-2,9.798608780E0,9.798726813E0
7.761756710E-1,-4.785645287E-3,5.742774159E-2,9.793823242E0,9.793992779E0
7.783706590E-1,0.000000000E0,4.307080805E-2,9.793823242E0,9.793917949E0
7.805663580E-1,9.571290575E-3,5.264209956E-2,9.779465675E0,9.779612042E0
7.827570420E-1,0.000000000E0,3.828516230E-2,9.789037704E0,9.789112571E0
7.849357620E-1,4.785645287E-3,4.307080805E-2,9.793823242E0,9.793919118E0
7.871540960E-1,0.000000000E0,4.785645381E-2,9.774680138E0,9.774797289E0
7.893502530E-1,-4.785645287E-3,3.828516230E-2,9.774680138E0,9.774756286E0
7.915539690E-1,4.785645287E-3,4.785645381E-2,9.774680138E0,9.774798460E0
7.937486290E-1,0.000000000E0,3.828516230E-2,9.784252167E0,9.784327070E0
7.959647340E-1,-9.571290575E-3,4.785645381E-2,9.793823242E0,9.793944841E0
7.981282730E-1,-4.785645287E-3,4.307080805E-2,9.779465675E0,9.779561692E0
8.003407730E-1,-4.785645287E-3,4.785645381E-2,9.798608780E0,9.798726813E0
8.025368470E-1,-4.785645287E-3,4.785645381E-2,9.798608780E0,9.798726813E0
8.047278160E-1,0.000000000E0,4.307080805E-2,9.803394318E0,9.803488932E0
8.069190090E-1,9.571290575E-3,2.871387079E-2,9.784252167E0,9.784298981E0
8.091198450E-1,-9.571290575E-3,4.307080805E-2,9.793823242E0,9.793922626E0
8.113099080E-1,-9.571290575E-3,4.307080805E-2,9.789037704E0,9.789137137E0
8.135049670E-1,0.000000000E0,4.785645381E-2,9.798608780E0,9.798725645E0
8.156994560E-1,9.571290575E-3,4.785645381E-2,9.798608780E0,9.798730319E0
8.178966200E-1,-4.785645287E-3,4.307080805E-2,9.779465675E0,9.779561692E0
8.200924300E-1,0.000000000E0,3.828516230E-2,9.793823242E0,9.793898072E0
8.222882920E-1,-4.785645287E-3,4.785645381E-2,9.765109062E0,9.765227501E0
8.244845300E-1,1.435693540E-2,4.785645381E-2,9.793823242E0,9.793950687E0
8.266814810E-1,-9.571290575E-3,4.307080805E-2,9.793823242E0,9.793922626E0
8.288720930E-1,-9.571290575E-3,3.349951655E-2,9.784252167E0,9.784314196E0
8.310505300E-1,9.571290575E-3,5.264209956E-2,9.808179855E0,9.808325794E0
8.332673980E-1,0.000000000E0,4.307080805E-2,9.774680138E0,9.774775030E0
8.354569640E-1,0.000000000E0,4.307080805E-2,9.765109062E0,9.765204048E0
8.376392750E-1,4.785645287E-3,3.828516230E-2,9.774680138E0,9.774756286E0
8.398492150E-1,-4.785645287E-3,3.828516230E-2,9.779465675E0,9.779541786E0
8.420261770E-1,-4.785645287E-3,4.307080805E-2,9.784252167E0,9.784348137E0
8.442548450E-1,0.000000000E0,4.785645381E-2,9.784252167E0,9.784369203E0
8.464439420E-1,0.000000000E0,4.307080805E-2,9.798608780E0,9.798703441E0
8.486454700E-1,-4.785645287E-3,3.349951655E-2,9.798608780E0,9.798667213E0
8.508349230E-1,4.785645287E-3,3.349951655E-2,9.803394318E0,9.803452722E0
8.530306620E-1,0.000000000E0,6.699903309E-2,9.793823242E0,9.794052408E0
8.552266060E-1,9.571290575E-3,3.828516230E-2,9.793823242E0,9.793902749E0
8.574228040E-1,-1.435693540E-2,4.366901144E-2,9.798608780E0,9.798716606E0
8.596189710E-1,-9.571290575E-3,3.349951655E-2,9.789037704E0,9.789099704E0
8.618192260E-1,0.000000000E0,3.828516230E-2,9.793823242E0,9.793898072E0
8.640203880E-1,4.785645287E-3,4.307080805E-2,9.789037704E0,9.789133627E0
8.662059660E-1,4.785645287E-3,3.828516230E-2,9.789037704E0,9.789113741E0
8.684012080E-1,-9.571290575E-3,3.828516230E-2,9.784252167E0,9.784331752E0
8.705956650E-1,0.000000000E0,4.785645381E-2,9.789037704E0,9.789154684E0
8.727941010E-1,9.571290575E-3,4.307080805E-2,9.784252167E0,9.784351648E0
8.749899730E-1,-9.571290575E-3,4.366901144E-2,9.808179855E0,9.808281739E0
8.771861000E-1,-4.785645287E-3,4.366901144E-2,9.808179855E0,9.808278236E0
8.793826020E-1,-4.785645287E-3,4.845465720E-2,9.808179855E0,9.808300711E0
8.815784130E-1,4.785645287E-3,3.828516230E-2,9.793823242E0,9.793899242E0
8.837730540E-1,4.785645287E-3,4.307080805E-2,9.793823242E0,9.793919118E0
8.859689680E-1,-4.785645287E-3,4.785645381E-2,9.779465675E0,9.779583940E0
8.881647670E-1,4.785645287E-3,4.785645381E-2,9.784252167E0,9.784370373E0
8.903606900E-1,0.000000000E0,3.828516230E-2,9.779465675E0,9.779540615E0
8.925504080E-1,-4.785645287E-3,4.785645381E-2,9.793823242E0,9.793941333E0
8.947219180E-1,-9.571290575E-3,4.307080805E-2,9.784252167E0,9.784351648E0
8.969257940E-1,-1.435693540E-2,4.845465720E-2,9.793823242E0,9.793953628E0
8.991457450E-1,4.785645287E-3,3.828516230E-2,9.793823242E0,9.793899242E0
9.013466220E-1,0.000000000E0,6.221338734E-2,9.779465675E0,9.779663563E0
9.035417930E-1,0.000000000E0,4.785645381E-2,9.793823242E0,9.793940164E0
9.057317430E-1,9.571290575E-3,4.785645381E-2,9.779465675E0,9.779587453E0
9.079220100E-1,0.000000000E0,4.307080805E-2,9.769894600E0,9.769989539E0
9.100997460E-1,0.000000000E0,4.307080805E-2,9.793823242E0,9.793917949E0
9.123200520E-1,-4.785645287E-3,4.307080805E-2,9.769894600E0,9.769990711E0
9.145107360E-1,0.000000000E0,4.307080805E-2,9.789037704E0,9.789132458E0
9.166931190E-1,1.435693540E-2,3.828516230E-2,9.774680138E0,9.774765658E0
9.189078000E-1,0.000000000E0,3.349951655E-2,9.784252167E0,9.784309515E0
9.211023700E-1,-4.785645287E-3,3.409772366E-2,9.793823242E0,9.793883768E0
9.233051790E-1,4.785645287E-3,4.366901144E-2,9.798608780E0,9.798707257E0
9.254948260E-1,-4.785645287E-3,4.366901144E-2,9.812965393E0,9.813063726E0
9.276858250E-1,-9.571290575E-3,2.871387079E-2,9.779465675E0,9.779512513E0
9.298648110E-1,0.000000000E0,4.307080805E-2,9.793823242E0,9.793917949E0
9.320755440E-1,0.000000000E0,4.307080805E-2,9.769894600E0,9.769989539E0
9.342796370E-1,-2.392822690E-2,3.409772366E-2,9.803394318E0,9.803482818E0
9.364795370E-1,4.785645287E-3,3.828516230E-2,9.789037704E0,9.789113741E0
9.386718170E-1,0.000000000E0,3.409772366E-2,9.798608780E0,9.798668107E0
9.408596330E-1,4.785645287E-3,4.307080805E-2,9.789037704E0,9.789133627E0
9.430362790E-1,4.785645287E-3,3.888336942E-2,9.803394318E0,9.803472597E0
9.452558530E-1,-4.785645287E-3,4.307080805E-2,9.774680138E0,9.774776202E0
9.474480110E-1,-4.785645287E-3,5.742774159E-2,9.774680138E0,9.774850006E0
9.496320220E-1,-4.785645287E-3,4.845465720E-2,9.803394318E0,9.803515232E0
9.518472430E-1,0.000000000E0,4.307080805E-2,9.774680138E0,9.774775030E0
9.540415590E-1,9.571290575E-3,3.349951655E-2,9.769894600E0,9.769956721E0
9.562434830E-1,9.571290575E-3,3.828516230E-2,9.789037704E0,9.789117250E0
9.584329460E-1,9.571290575E-3,4.845465720E-2,9.803394318E0,9.803518736E0
9.606301510E-1,4.785645287E-3,2.871387079E-2,9.789037704E0,9.789080987E0
9.628283630E-1,-4.785645287E-3,3.409772366E-2,9.798608780E0,9.798669276E0
9.650211120E-1,9.571290575E-3,5.742774159E-2,9.779465675E0,9.779638973E0
9.672185400E-1,4.785645287E-3,4.307080805E-2,9.789037704E0,9.789133627E0
9.694132020E-1,4.785645287E-3,3.828516230E-2,9.789037704E0,9.789113741E0
9.716084540E-1,4.785645287E-3,5.264209956E-2,9.793823242E0,9.793965887E0
9.738088830E-1,-1.435693540E-2,5.264209956E-2,9.784252167E0,9.784404314E0
9.760199420E-1,0.000000000E0,5.264209956E-2,9.798608780E0,9.798750186E0
9.781962320E-1,0.000000000E0,4.307080805E-2,9.784252167E0,9.784346966E0
9.803921350E-1,0.000000000E0,5.264209956E-2,9.784252167E0,9.784393781E0
9.825842730E-1,0.000000000E0,5.264209956E-2,9.784252167E0,9.784393781E0
9.847857610E-1,9.571290575E-3,3.828516230E-2,9.779465675E0,9.779545299E0
9.869814090E-1,9.571290575E-3,4.845465720E-2,9.812965393E0,9.813089690E0
9.891754710E-1,0.000000000E0,4.845465720E-2,9.803394318E0,9.803514064E0
9.913711690E-1,4.785645287E-3,3.888336942E-2,9.812965393E0,9.813043596E0
9.935668380E-1,0.000000000E0,5.324030295E-2,9.803394318E0,9.803538885E0
9.957570130E-1,9.571290575E-3,4.785645381E-2,9.798608780E0,9.798730319E0
9.979335980E-1,0.000000000E0,3.409772366E-2,9.803394318E0,9.803453616E0
1.000156264E0,-4.785645287E-3,4.307080805E-2,9.789037704E0,9.789133627E0
1.002347335E0,-4.785645287E-3,4.785645381E-2,9.779465675E0,9.779583940E0
1.004528874E0,4.785645287E-3,4.785645381E-2,9.789037704E0,9.789155853E0
1.006736557E0,-4.785645287E-3,5.264209956E-2,9.784252167E0,9.784394951E0
1.008912357E0,0.000000000E0,5.264209956E-2,9.779465675E0,9.779607358E0
1.011140864E0,-9.571290575E-3,4.845465720E-2,9.798608780E0,9.798733259E0
1.013330459E0,-4.785645287E-3,3.409772366E-2,9.803394318E0,9.803454784E0
1.015532751E0,-4.785645287E-3,5.264209956E-2,9.784252167E0,9.784394951E0
1.017722600E0,4.785645287E-3,4.307080805E-2,9.784252167E0,9.784348137E0
1.019919865E0,-4.785645287E-3,3.349951655E-2,9.784252167E0,9.784310685E0
1.022115351E0,-4.785645287E-3,3.828516230E-2,9.793823242E0,9.793899242E0
1.024310215E0,4.785645287E-3,4.785645381E-2,9.793823242E0,9.793941333E0
1.026505416E0,4.785645287E-3,4.307080805E-2,9.769894600E0,9.769990711E0
1.028695378E0,0.000000000E0,4.307080805E-2,9.789037704E0,9.789132458E0
1.030872563E0,4.785645287E-3,4.785645381E-2,9.784252167E0,9.784370373E0
1.033093673E0,-4.785645287E-3,5.264209956E-2,9.789037704E0,9.789180419E0
1.035286116E0,-1.435693540E-2,4.845465720E-2,9.803394318E0,9.803524577E0
1.037477676E0,-4.785645287E-3,4.785645381E-2,9.798608780E0,9.798726813E0
1.039682093E0,0.000000000E0,5.264209956E-2,9.793823242E0,9.793964718E0
1.041871739E0,-9.571290575E-3,5.264209956E-2,9.779465675E0,9.779612042E0
1.044056778E0,-1.435693540E-2,4.307080805E-2,9.789037704E0,9.789142986E0
1.046262243E0,-9.571290575E-3,6.699903309E-2,9.779465675E0,9.779699861E0
1.048433467E0,-9.571290575E-3,4.845465720E-2,9.803394318E0,9.803518736E0
1.050635889E0,-1.435693540E-2,4.785645381E-2,9.789037704E0,9.789165212E0
1.052862879E0,9.571290575E-3,3.349951655E-2,9.793823242E0,9.793885211E0
1.055053838E0,0.000000000E0,4.785645381E-2,9.793823242E0,9.793940164E0
1.057255600E0,-4.785645287E-3,4.366901144E-2,9.803394318E0,9.803492747E0
1.059443730E0,-4.785645287E-3,5.264209956E-2,9.789037704E0,9.789180419E0
1.061633437E0,-4.785645287E-3,4.785645381E-2,9.793823242E0,9.793941333E0
1.063811355E0,0.000000000E0,4.307080805E-2,9.784252167E0,9.784346966E0
1.066025691E0,0.000000000E0,3.828516230E-2,9.784252167E0,9.784327070E0
1.068196232E0,-4.785645287E-3,2.931207791E-2,9.798608780E0,9.798653791E0
1.070398280E0,0.000000000E0,3.349951655E-2,9.774680138E0,9.774737542E0
1.072596176E0,-9.571290575E-3,2.871387079E-2,9.784252167E0,9.784298981E0
1.074817042E0,4.785645287E-3,3.828516230E-2,9.793823242E0,9.793899242E0
1.076991459E0,1.435693540E-2,3.888336942E-2,9.808179855E0,9.808267437E0
1.079207341E0,-4.785645287E-3,4.366901144E-2,9.808179855E0,9.808278236E0
1.081371415E0,-4.785645287E-3,4.785645381E-2,9.793823242E0,9.793941333E0
1.083581060E0,0.000000000E0,5.264209956E-2,9.784252167E0,9.784393781E0
1.085794367E0,9.571290575E-3,4.785645381E-2,9.793823242E0,9.793944841E0
1.087997177E0,4.785645287E-3,5.324030295E-2,9.808179855E0,9.808325520E0
1.090193792E0,4.785645287E-3,4.307080805E-2,9.793823242E0,9.793919118E0
1.092383642E0,-4.785645287E-3,3.828516230E-2,9.774680138E0,9.774756286E0
1.094580897E0,0.000000000E0,4.307080805E-2,9.793823242E0,9.793917949E0
1.096783524E0,0.000000000E0,4.785645381E-2,9.789037704E0,9.789154684E0
1.098969549E0,0.000000000E0,5.264209956E-2,9.784252167E0,9.784393781E0
1.101165471E0,0.000000000E0,5.742774159E-2,9.789037704E0,9.789206154E0
1.103359003E0,-9.571290575E-3,3.828516230E-2,9.793823242E0,9.793902749E0
1.105557825E0,0.000000000E0,4.307080805E-2,9.784252167E0,9.784346966E0
1.107749945E0,-1.435693540E-2,4.307080805E-2,9.769894600E0,9.770000087E0
1.109932235E0,-4.785645287E-3,3.888336942E-2,9.798608780E0,9.798687098E0
1.112145431E0,0.000000000E0,3.828516230E-2,9.793823242E0,9.793898072E0
1.114347265E0,9.571290575E-3,4.785645381E-2,9.798608780E0,9.798730319E0
1.116569270E0,4.785645287E-3,5.264209956E-2,9.779465675E0,9.779608529E0
1.118737972E0,-9.571290575E-3,4.785645381E-2,9.784252167E0,9.784373885E0
1.120941370E0,9.571290575E-3,4.307080805E-2,9.793823242E0,9.793922626E0
1.123138047E0,4.785645287E-3,3.828516230E-2,9.789037704E0,9.789113741E0
1.125328547E0,-1.435693540E-2,4.845465720E-2,9.798608780E0,9.798739102E0
1.127521042E0,0.000000000E0,4.785645381E-2,9.793823242E0,9.793940164E0
1.129725011E0,0.000000000E0,3.828516230E-2,9.784252167E0,9.784327070E0
1.131907862E0,-9.571290575E-3,4.785645381E-2,9.789037704E0,9.789159363E0
1.134103989E0,9.571290575E-3,4.785645381E-2,9.789037704E0,9.789159363E0
1.136296870E0,0.000000000E0,4.785645381E-2,9.784252167E0,9.784369203E0
1.138495895E0,-4.785645287E-3,4.366901144E-2,9.798608780E0,9.798707257E0
1.140692389E0,-4.785645287E-3,3.888336942E-2,9.798608780E0,9.798687098E0
1.142886206E0,9.571290575E-3,5.742774159E-2,9.789037704E0,9.789210833E0
1.145070083E0,0.000000000E0,4.785645381E-2,9.793823242E0,9.793940164E0
1.147274277E0,0.000000000E0,4.785645381E-2,9.793823242E0,9.793940164E0
1.149454738E0,-1.435693540E-2,3.828516230E-2,9.784252167E0,9.784337603E0
1.151674699E0,-4.785645287E-3,4.307080805E-2,9.784252167E0,9.784348137E0
1.153867213E0,-9.571290575E-3,2.931207791E-2,9.798608780E0,9.798657297E0
1.156068965E0,4.785645287E-3,3.349951655E-2,9.789037704E0,9.789096194E0
1.158259212E0,0.000000000E0,4.785645381E-2,9.789037704E0,9.789154684E0
1.160449855E0,0.000000000E0,4.785645381E-2,9.789037704E0,9.789154684E0
1.162621312E0,0.000000000E0,5.264209956E-2,9.789037704E0,9.789179249E0
1.164826900E0,4.785645287E-3,4.307080805E-2,9.784252167E0,9.784348137E0
1.167042069E0,0.000000000E0,6.221338734E-2,9.774680138E0,9.774878122E0
1.169238267E0,4.785645287E-3,5.264209956E-2,9.789037704E0,9.789180419E0
1.171415898E0,-4.785645287E-3,3.828516230E-2,9.760323524E0,9.760399785E0
1.173629461E0,4.785645287E-3,4.785645381E-2,9.784252167E0,9.784370373E0
1.175823675E0,4.785645287E-3,2.871387079E-2,9.793823242E0,9.793866503E0
1.178028926E0,9.571290575E-3,4.307080805E-2,9.779465675E0,9.779565205E0
1.180219457E0,-9.571290575E-3,5.264209956E-2,9.784252167E0,9.784398462E0
1.182414740E0,0.000000000E0,2.871387079E-2,9.779465675E0,9.779507829E0
1.184609259E0,4.785645287E-3,4.845465720E-2,9.808179855E0,9.808300711E0
1.186805314E0,9.571290575E-3,5.264209956E-2,9.789037704E0,9.789183928E0
1.189001185E0,-9.571290575E-3,4.307080805E-2,9.793823242E0,9.793922626E0
1.191197495E0,4.785645287E-3,4.307080805E-2,9.774680138E0,9.774776202E0
1.193393306E0,-4.785645287E-3,4.785645381E-2,9.779465675E0,9.779583940E0
1.195583959E0,-4.785645287E-3,4.307080805E-2,9.789037704E0,9.789133627E0
1.197760616E0,4.785645287E-3,4.307080805E-2,9.779465675E0,9.779561692E0
1.199980811E0,-9.571290575E-3,5.324030295E-2,9.798608780E0,9.798758093E0
1.202170213E0,0.000000000E0,4.845465720E-2,9.803394318E0,9.803514064E0
1.204352504E0,0.000000000E0,4.366901144E-2,9.798608780E0,9.798706088E0
1.206564723E0,0.000000000E0,5.742774159E-2,9.798608780E0,9.798777065E0
1.208749385E0,0.000000000E0,5.264209956E-2,9.784252167E0,9.784393781E0
1.210967169E0,4.785645287E-3,4.307080805E-2,9.789037704E0,9.789133627E0
1.213158503E0,4.785645287E-3,4.307080805E-2,9.798608780E0,9.798704609E0
1.215356685E0,4.785645287E-3,5.264209956E-2,9.789037704E0,9.789180419E0
1.217548091E0,0.000000000E0,5.264209956E-2,9.798608780E0,9.798750186E0
1.219743068E0,-4.785645287E-3,4.307080805E-2,9.789037704E0,9.789133627E0
1.221938940E0,-9.571290575E-3,2.931207791E-2,9.812965393E0,9.813013839E0
1.224135281E0,-9.571290575E-3,4.307080805E-2,9.774680138E0,9.774779716E0
1.226331509E0,0.000000000E0,3.888336942E-2,9.798608780E0,9.798685929E0
1.228521368E0,-4.785645287E-3,3.888336942E-2,9.803394318E0,9.803472597E0
1.230699143E0,-1.435693540E-2,3.349951655E-2,9.779465675E0,9.779533590E0
1.232920213E0,0.000000000E0,6.221338734E-2,9.793823242E0,9.794020840E0
1.235114762E0,0.000000000E0,4.307080805E-2,9.793823242E0,9.793917949E0
1.237316911E0,-1.435693540E-2,5.264209956E-2,9.784252167E0,9.784404314E0
1.239507004E0,9.571290575E-3,4.785645381E-2,9.774680138E0,9.774801975E0
1.241697313E0,-9.571290575E-3,4.785645381E-2,9.789037704E0,9.789159363E0
1.243873236E0,4.785645287E-3,3.888336942E-2,9.803394318E0,9.803472597E0
1.246094489E0,-9.571290575E-3,5.264209956E-2,9.779465675E0,9.779612042E0
1.248291520E0,-9.571290575E-3,2.871387079E-2,9.789037704E0,9.789084496E0
1.250494076E0,0.000000000E0,4.785645381E-2,9.769894600E0,9.770011808E0
1.252681973E0,-4.785645287E-3,4.785645381E-2,9.789037704E0,9.789155853E0
1.254877540E0,0.000000000E0,4.307080805E-2,9.789037704E0,9.789132458E0
1.257073502E0,-4.785645287E-3,4.307080805E-2,9.789037704E0,9.789133627E0
1.259269721E0,4.785645287E-3,3.409772366E-2,9.803394318E0,9.803454784E0
1.261459316E0,0.000000000E0,5.264209956E-2,9.784252167E0,9.784393781E0
1.263635952E0,4.785645287E-3,4.785645381E-2,9.765109062E0,9.765227501E0
1.265858588E0,4.785645287E-3,4.307080805E-2,9.779465675E0,9.779561692E0
1.268054033E0,4.785645287E-3,4.785645381E-2,9.789037704E0,9.789155853E0
1.270255530E0,0.000000000E0,4.366901144E-2,9.812965393E0,9.813062559E0
1.272444393E0,-1.914258115E-2,4.845465720E-2,9.793823242E0,9.793961813E0
1.274634111E0,4.785645287E-3,6.699903309E-2,9.798608780E0,9.798839002E0
1.276811601E0,4.785645287E-3,4.307080805E-2,9.779465675E0,9.779561692E0
1.279032732E0,-1.435693540E-2,4.307080805E-2,9.789037704E0,9.789142986E0
1.281223313E0,4.785645287E-3,3.828516230E-2,9.779465675E0,9.779541786E0
1.283408993E0,-9.571290575E-3,4.307080805E-2,9.769894600E0,9.769994227E0
1.285621375E0,0.000000000E0,4.785645381E-2,9.769894600E0,9.770011808E0
1.287816159E0,-4.785645287E-3,4.307080805E-2,9.784252167E0,9.784348137E0
1.290017544E0,4.785645287E-3,3.828516230E-2,9.774680138E0,9.774756286E0
1.292207811E0,-4.785645287E-3,5.264209956E-2,9.784252167E0,9.784394951E0
1.294403825E0,9.571290575E-3,5.264209956E-2,9.784252167E0,9.784398462E0
1.296599556E0,-4.785645287E-3,5.742774159E-2,9.789037704E0,9.789207324E0
1.298795661E0,0.000000000E0,5.742774159E-2,9.789037704E0,9.789206154E0
1.300992815E0,-4.785645287E-3,4.785645381E-2,9.793823242E0,9.793941333E0
1.303182176E0,0.000000000E0,5.742774159E-2,9.793823242E0,9.793991609E0
1.305357734E0,0.000000000E0,4.785645381E-2,9.779465675E0,9.779582769E0
1.307572557E0,4.785645287E-3,4.785645381E-2,9.784252167E0,9.784370373E0
1.309749315E0,-9.571290575E-3,5.264209956E-2,9.784252167E0,9.784398462E0
1.311977047E0,1.435693540E-2,4.307080805E-2,9.779465675E0,9.779571060E0
1.314160082E0,4.785645287E-3,5.324030295E-2,9.803394318E0,9.803540053E0
1.316343655E0,-9.571290575E-3,5.802594870E-2,9.798608780E0,9.798785264E0
1.318560472E0,-4.785645287E-3,4.785645381E-2,9.789037704E0,9.789155853E0
1.320755826E0,-4.785645287E-3,5.264209956E-2,9.793823242E0,9.793965887E0
1.322956448E0,4.785645287E-3,4.307080805E-2,9.789037704E0,9.789133627E0
1.325145850E0,0.000000000E0,3.409772366E-2,9.798608780E0,9.798668107E0
1.327335700E0,-4.785645287E-3,5.264209956E-2,9.789037704E0,9.789180419E0
1.329513710E0,-9.571290575E-3,5.742774159E-2,9.784252167E0,9.784425380E0
1.331733955E0,0.000000000E0,3.828516230E-2,9.789037704E0,9.789112571E0
1.333930030E0,-4.785645287E-3,4.307080805E-2,9.789037704E0,9.789133627E0
1.336132921E0,0.000000000E0,4.785645381E-2,9.789037704E0,9.789154684E0
1.338322242E0,-9.571290575E-3,4.307080805E-2,9.779465675E0,9.779565205E0
1.340512907E0,-9.571290575E-3,3.888336942E-2,9.798608780E0,9.798690604E0
1.342691932E0,-4.785645287E-3,3.409772366E-2,9.808179855E0,9.808240292E0
1.344897478E0,0.000000000E0,3.828516230E-2,9.789037704E0,9.789112571E0
1.347104835E0,4.785645287E-3,4.785645381E-2,9.789037704E0,9.789155853E0
1.349305834E0,-1.914258115E-2,5.264209956E-2,9.788438797E0,9.788599068E0
1.351500607E0,-4.785645287E-3,4.307080805E-2,9.779465675E0,9.779561692E0
1.353698036E0,0.000000000E0,5.742774159E-2,9.779465675E0,9.779634290E0
1.355897275E0,4.785645287E-3,3.828516230E-2,9.774680138E0,9.774756286E0
1.358096513E0,-4.785645287E-3,4.785645381E-2,9.789037704E0,9.789155853E0
1.360268348E0,-4.785645287E-3,4.307080805E-2,9.784252167E0,9.784348137E0
1.362475440E0,-4.785645287E-3,3.349951655E-2,9.793823242E0,9.793881703E0
1.364651466E0,-4.785645287E-3,3.828516230E-2,9.789037704E0,9.789113741E0
1.366872249E0,-4.785645287E-3,3.409772366E-2,9.803394318E0,9.803454784E0
1.369064053E0,9.571290575E-3,4.307080805E-2,9.793823242E0,9.793922626E0
1.371267646E0,0.000000000E0,5.264209956E-2,9.789037704E0,9.789179249E0
1.373450386E0,-4.785645287E-3,3.828516230E-2,9.789037704E0,9.789113741E0
1.375625974E0,4.785645287E-3,4.785645381E-2,9.784252167E0,9.784370373E0
1.377847115E0,4.785645287E-3,5.264209956E-2,9.784252167E0,9.784394951E0
1.380043302E0,-9.571290575E-3,4.785645381E-2,9.779465675E0,9.779587453E0
1.382245959E0,-4.785645287E-3,5.264209956E-2,9.789037704E0,9.789180419E0
1.384434995E0,4.785645287E-3,4.845465720E-2,9.822537422E0,9.822658101E0
1.386631273E0,-4.785645287E-3,4.366901144E-2,9.803394318E0,9.803492747E0
1.388828081E0,0.000000000E0,4.366901144E-2,9.798608780E0,9.798706088E0
1.391024463E0,0.000000000E0,3.828516230E-2,9.789037704E0,9.789112571E0
1.393218950E0,-4.785645287E-3,4.785645381E-2,9.784252167E0,9.784370373E0
1.395408241E0,-4.785645287E-3,4.785645381E-2,9.779465675E0,9.779583940E0
1.397585142E0,0.000000000E0,4.307080805E-2,9.789037704E0,9.789132458E0
1.399806322E0,9.571290575E-3,4.785645381E-2,9.798608780E0,9.798730319E0
1.401995622E0,9.571290575E-3,3.828516230E-2,9.769894600E0,9.769974302E0
1.404178932E0,-4.785645287E-3,5.264209956E-2,9.779465675E0,9.779608529E0
1.406395699E0,4.785645287E-3,3.828516230E-2,9.779465675E0,9.779541786E0
1.408588845E0,0.000000000E0,3.349951655E-2,9.784252167E0,9.784309515E0
1.410782956E0,4.785645287E-3,4.785645381E-2,9.784252167E0,9.784370373E0
1.412981574E0,4.785645287E-3,5.742774159E-2,9.793823242E0,9.793992779E0
1.415178210E0,0.000000000E0,3.828516230E-2,9.779465675E0,9.779540615E0
1.417375588E0,-9.571290575E-3,3.888336942E-2,9.798608780E0,9.798690604E0
1.419569445E0,-4.785645287E-3,5.324030295E-2,9.798608780E0,9.798754587E0
1.421765348E0,-1.435693540E-2,5.264209956E-2,9.784252167E0,9.784404314E0
1.423963549E0,0.000000000E0,4.307080805E-2,9.798608780E0,9.798703441E0
1.426158171E0,1.435693540E-2,4.307080805E-2,9.784252167E0,9.784357500E0
1.428346566E0,0.000000000E0,3.349951655E-2,9.779465675E0,9.779523051E0
1.430516610E0,-9.571290575E-3,4.307080805E-2,9.793823242E0,9.793922626E0
1.432706094E0,0.000000000E0,4.307080805E-2,9.789037704E0,9.789132458E0
1.434895578E0,0.000000000E0,3.828516230E-2,9.779465675E0,9.779540615E0
1.437085061E0,-4.785645287E-3,4.785645381E-2,9.798608780E0,9.798726813E0
1.439274545E0,-4.785645287E-3,4.307080805E-2,9.803394318E0,9.803490100E0
1.441464029E0,-4.785645287E-3,3.828516230E-2,9.793823242E0,9.793899242E0
1.443693255E0,4.785645287E-3,4.307080805E-2,9.793823242E0,9.793919118E0
1.445887683E0,4.785645287E-3,4.785645381E-2,9.798608780E0,9.798726813E0
1.448083625E0,-1.435693540E-2,2.392822690E-2,9.793823242E0,9.793862996E0
1.450286049E0,-4.785645287E-3,4.366901144E-2,9.808179855E0,9.808278236E0
1.452482663E0,-1.914258115E-2,5.264209956E-2,9.789037704E0,9.789197966E0
1.454677966E0,-4.785645287E-3,3.828516230E-2,9.774680138E0,9.774756286E0
1.456874235E0,9.571290575E-3,4.785645381E-2,9.789037704E0,9.789159363E0
1.459071155E0,0.000000000E0,3.349951655E-2,9.784252167E0,9.784309515E0
1.461266671E0,9.571290575E-3,3.828516230E-2,9.789037704E0,9.789117250E0
1.463460885E0,-1.435693540E-2,4.785645381E-2,9.784252167E0,9.784379736E0
1.465657153E0,0.000000000E0,4.307080805E-2,9.789037704E0,9.789132458E0
1.467853555E0,0.000000000E0,3.828516230E-2,9.779465675E0,9.779540615E0
1.470049996E0,4.785645287E-3,4.307080805E-2,9.793823242E0,9.793919118E0
1.472245379E0,9.571290575E-3,4.307080805E-2,9.798608780E0,9.798708115E0
1.474441353E0,0.000000000E0,6.281159073E-2,9.812965393E0,9.813166416E0
1.476644499E0,-9.571290575E-3,4.307080805E-2,9.784252167E0,9.784351648E0
1.478861641E0,-9.571290575E-3,5.264209956E-2,9.803394318E0,9.803540327E0
1.481040546E0,-1.914258115E-2,4.785645381E-2,9.789037704E0,9.789173400E0
1.483256173E0,9.571290575E-3,4.307080805E-2,9.784252167E0,9.784351648E0
1.485445616E0,4.785645287E-3,4.785645381E-2,9.784252167E0,9.784370373E0
1.487647010E0,0.000000000E0,4.307080805E-2,9.789037704E0,9.789132458E0
1.489837736E0,0.000000000E0,4.307080805E-2,9.789037704E0,9.789132458E0
1.492034168E0,0.000000000E0,4.307080805E-2,9.784252167E0,9.784346966E0
1.494231668E0,4.785645287E-3,4.307080805E-2,9.789037704E0,9.789133627E0
1.496425169E0,-4.785645287E-3,3.349951655E-2,9.793823242E0,9.793881703E0
1.498614856E0,-4.785645287E-3,4.307080805E-2,9.779465675E0,9.779561692E0
1.500792092E0,0.000000000E0,3.828516230E-2,9.789037704E0,9.789112571E0
1.503013081E0,0.000000000E0,4.785645381E-2,9.793823242E0,9.793940164E0
1.505208433E0,9.571290575E-3,4.785645381E-2,9.784252167E0,9.784373885E0
1.507404305E0,-4.785645287E-3,4.785645381E-2,9.789037704E0,9.789155853E0
1.509575519E0,-4.785645287E-3,5.264209956E-2,9.798608780E0,9.798751355E0
1.511797983E0,-9.571290575E-3,4.307080805E-2,9.784252167E0,9.784351648E0
1.513987201E0,4.785645287E-3,4.307080805E-2,9.774680138E0,9.774776202E0
1.516168974E0,4.785645287E-3,5.264209956E-2,9.789037704E0,9.789180419E0
1.518383849E0,9.571290575E-3,5.264209956E-2,9.774680138E0,9.774826576E0
1.520579873E0,4.785645287E-3,5.264209956E-2,9.798608780E0,9.798751355E0
1.522782448E0,9.571290575E-3,5.264209956E-2,9.803394318E0,9.803540327E0
1.524971882E0,9.571290575E-3,4.307080805E-2,9.808179855E0,9.808279094E0
1.527161345E0,-1.435693540E-2,3.828516230E-2,9.769894600E0,9.769980162E0
1.529338814E0,-1.435693540E-2,4.307080805E-2,9.784252167E0,9.784357500E0
1.531559385E0,-9.571290575E-3,3.828516230E-2,9.779465675E0,9.779545299E0
1.533756011E0,9.571290575E-3,3.828516230E-2,9.793823242E0,9.793902749E0
1.535957345E0,0.000000000E0,5.742774159E-2,9.769894600E0,9.770063379E0
1.538146157E0,0.000000000E0,4.785645381E-2,9.784252167E0,9.784369203E0
1.540341622E0,0.000000000E0,4.307080805E-2,9.779465675E0,9.779560521E0
1.542533080E0,-4.785645287E-3,4.785645381E-2,9.779465675E0,9.779583940E0
1.544735269E0,4.785645287E-3,4.307080805E-2,9.803394318E0,9.803490100E0
1.546925901E0,-9.571290575E-3,4.845465720E-2,9.803394318E0,9.803518736E0
1.549097329E0,0.000000000E0,4.785645381E-2,9.793823242E0,9.793940164E0
1.551299651E0,9.571290575E-3,3.349951655E-2,9.789037704E0,9.789099704E0
1.553519835E0,0.000000000E0,3.828516230E-2,9.779465675E0,9.779540615E0
1.555714364E0,0.000000000E0,4.785645381E-2,9.784252167E0,9.784369203E0
1.557916441E0,4.785645287E-3,4.307080805E-2,9.789037704E0,9.789133627E0
1.560105589E0,-9.571290575E-3,4.307080805E-2,9.784252167E0,9.784351648E0
1.562296193E0,4.785645287E-3,5.264209956E-2,9.789037704E0,9.789180419E0
1.564474476E0,0.000000000E0,4.307080805E-2,9.793823242E0,9.793917949E0
1.566694681E0,4.785645287E-3,4.785645381E-2,9.793823242E0,9.793941333E0
1.568889342E0,9.571290575E-3,3.888336942E-2,9.803394318E0,9.803476102E0
1.571091023E0,9.571290575E-3,3.349951655E-2,9.798608780E0,9.798670718E0
1.573277983E0,-4.785645287E-3,3.828516230E-2,9.784252167E0,9.784328241E0
1.575461607E0,1.435693540E-2,4.307080805E-2,9.793823242E0,9.793928472E0
1.577673115E0,-9.571290575E-3,3.828516230E-2,9.779465675E0,9.779545299E0
1.579869059E0,-4.785645287E-3,4.307080805E-2,9.774680138E0,9.774776202E0
1.582070891E0,-4.785645287E-3,3.828516230E-2,9.793823242E0,9.793899242E0
1.584261921E0,9.571290575E-3,4.785645381E-2,9.784252167E0,9.784373885E0
1.586457040E0,4.785645287E-3,4.366901144E-2,9.798608780E0,9.798707257E0
1.588652740E0,1.435693540E-2,4.307080805E-2,9.789037704E0,9.789142986E0
1.590847878E0,0.000000000E0,3.888336942E-2,9.798608780E0,9.798685929E0
1.593044198E0,9.571290575E-3,5.264209956E-2,9.793823242E0,9.793969394E0
1.595233866E0,0.000000000E0,4.307080805E-2,9.784252167E0,9.784346966E0
1.597412149E0,-9.571290575E-3,3.828516230E-2,9.789037704E0,9.789117250E0
1.599633788E0,9.571290575E-3,4.366901144E-2,9.808179855E0,9.808281739E0
1.601832528E0,4.785645287E-3,3.828516230E-2,9.789037704E0,9.789113741E0
1.604042490E0,0.000000000E0,5.264209956E-2,9.793823242E0,9.793964718E0
1.606218923E0,0.000000000E0,3.828516230E-2,9.789037704E0,9.789112571E0
1.608409148E0,-4.785645287E-3,4.845465720E-2,9.798608780E0,9.798729753E0
1.610584604E0,0.000000000E0,3.828516230E-2,9.793823242E0,9.793898072E0
1.612807484E0,9.571290575E-3,4.307080805E-2,9.784252167E0,9.784351648E0
1.615003305E0,0.000000000E0,3.828516230E-2,9.784252167E0,9.784327070E0
1.617206339E0,0.000000000E0,4.366901144E-2,9.808179855E0,9.808277069E0
1.619396361E0,-4.785645287E-3,4.785645381E-2,9.789037704E0,9.789155853E0
1.621590749E0,-4.785645287E-3,4.785645381E-2,9.789037704E0,9.789155853E0
1.623786427E0,0.000000000E0,3.828516230E-2,9.784252167E0,9.784327070E0
1.625982187E0,0.000000000E0,4.785645381E-2,9.793823242E0,9.793940164E0
1.628176879E0,-4.785645287E-3,5.264209956E-2,9.789037704E0,9.789180419E0
1.630367990E0,4.785645287E-3,4.785645381E-2,9.774680138E0,9.774798460E0
1.632570708E0,0.000000000E0,5.264209956E-2,9.779465675E0,9.779607358E0
1.634768198E0,0.000000000E0,5.264209956E-2,9.789037704E0,9.789179249E0
1.636964691E0,0.000000000E0,4.845465720E-2,9.803394318E0,9.803514064E0
1.639157999E0,-9.571290575E-3,4.845465720E-2,9.808179855E0,9.808304213E0
1.641347136E0,0.000000000E0,4.785645381E-2,9.793823242E0,9.793940164E0
1.643524414E0,9.571290575E-3,5.324030295E-2,9.812965393E0,9.813114488E0
1.645745981E0,4.785645287E-3,3.828516230E-2,9.784252167E0,9.784328241E0
1.647935129E0,-4.785645287E-3,4.845465720E-2,9.803394318E0,9.803515232E0
1.650119190E0,-9.571290575E-3,4.845465720E-2,9.798608780E0,9.798733259E0
1.652334146E0,1.435693540E-2,4.785645381E-2,9.784252167E0,9.784379736E0
1.654529886E0,0.000000000E0,2.871387079E-2,9.779465675E0,9.779507829E0
1.656731262E0,-4.785645287E-3,4.307080805E-2,9.789037704E0,9.789133627E0
1.658920430E0,-4.785645287E-3,4.366901144E-2,9.798608780E0,9.798707257E0
1.661117309E0,9.571290575E-3,4.785645381E-2,9.793823242E0,9.793944841E0
1.663315348E0,9.571290575E-3,3.828516230E-2,9.793823242E0,9.793902749E0
1.665508647E0,4.785645287E-3,3.409772366E-2,9.798608780E0,9.798669276E0
1.667704629E0,-4.785645287E-3,3.828516230E-2,9.784252167E0,9.784328241E0
1.669901133E0,0.000000000E0,5.802594870E-2,9.803394318E0,9.803566043E0
1.672090881E0,0.000000000E0,4.785645381E-2,9.789037704E0,9.789154684E0
1.674260569E0,-4.785645287E-3,3.828516230E-2,9.774680138E0,9.774756286E0
1.676462920E0,4.785645287E-3,4.845465720E-2,9.803394318E0,9.803515232E0
1.678683838E0,4.785645287E-3,4.785645381E-2,9.779465675E0,9.779583940E0
1.680879486E0,0.000000000E0,5.742774159E-2,9.779465675E0,9.779634290E0
1.683056407E0,-4.785645287E-3,3.349951655E-2,9.784252167E0,9.784310685E0
1.685272216E0,9.571290575E-3,6.699903309E-2,9.784252167E0,9.784486238E0
1.687468699E0,9.571290575E-3,3.828516230E-2,9.789037704E0,9.789117250E0
1.689670623E0,4.785645287E-3,4.307080805E-2,9.793823242E0,9.793919118E0
1.691858979E0,-9.571290575E-3,3.828516230E-2,9.793823242E0,9.793902749E0
1.694049082E0,9.571290575E-3,4.307080805E-2,9.789037704E0,9.789137137E0
1.696221517E0,4.785645287E-3,4.307080805E-2,9.789037704E0,9.789133627E0
1.698421367E0,0.000000000E0,4.366901144E-2,9.798608780E0,9.798706088E0
1.700642760E0,-4.785645287E-3,4.307080805E-2,9.793823242E0,9.793919118E0
1.702838887E0,-4.785645287E-3,3.828516230E-2,9.789037704E0,9.789113741E0
1.705020203E0,-9.571290575E-3,4.307080805E-2,9.769894600E0,9.769994227E0
1.707224824E0,9.571290575E-3,3.828516230E-2,9.789037704E0,9.789117250E0
1.709400807E0,9.571290575E-3,3.828516230E-2,9.774680138E0,9.774759800E0
1.711627349E0,9.571290575E-3,3.828516230E-2,9.779465675E0,9.779545299E0
1.713817505E0,4.785645287E-3,3.349951655E-2,9.789037704E0,9.789096194E0
1.716020467E0,4.785645287E-3,4.785645381E-2,9.793823242E0,9.793941333E0
1.718210042E0,4.785645287E-3,3.349951655E-2,9.784252167E0,9.784310685E0
1.720405935E0,4.785645287E-3,4.307080805E-2,9.798608780E0,9.798704609E0
1.722602569E0,-4.785645287E-3,4.785645381E-2,9.789037704E0,9.789155853E0
1.724798513E0,-4.785645287E-3,4.785645381E-2,9.784252167E0,9.784370373E0
1.726993438E0,-4.785645287E-3,4.785645381E-2,9.779465675E0,9.779583940E0
1.729185628E0,0.000000000E0,4.785645381E-2,9.789037704E0,9.789154684E0
1.731370504E0,0.000000000E0,5.264209956E-2,9.789037704E0,9.789179249E0
1.733581045E0,0.000000000E0,4.307080805E-2,9.793823242E0,9.793917949E0
1.735781768E0,4.785645287E-3,5.264209956E-2,9.798608780E0,9.798751355E0
1.737994720E0,0.000000000E0,3.828516230E-2,9.798608780E0,9.798683574E0
1.740164215E0,0.000000000E0,5.264209956E-2,9.769894600E0,9.770036422E0
1.742342316E0,0.000000000E0,5.264209956E-2,9.784252167E0,9.784393781E0
1.744556203E0,0.000000000E0,3.828516230E-2,9.784252167E0,9.784327070E0
1.746756785E0,-9.571290575E-3,5.264209956E-2,9.798608780E0,9.798754861E0
1.748957509E0,1.914258115E-2,4.307080805E-2,9.774680138E0,9.774793774E0
1.751147848E0,0.000000000E0,4.785645381E-2,9.784252167E0,9.784369203E0
1.753343495E0,-4.785645287E-3,5.264209956E-2,9.769894600E0,9.770037594E0
1.755539998E0,-4.785645287E-3,4.307080805E-2,9.789037704E0,9.789133627E0
1.757737092E0,-4.785645287E-3,2.871387079E-2,9.784252167E0,9.784295470E0
1.759933015E0,0.000000000E0,5.264209956E-2,9.798608780E0,9.798750186E0
1.762121908E0,4.785645287E-3,5.742774159E-2,9.784252167E0,9.784421869E0
1.764298228E0,-9.571290575E-3,4.307080805E-2,9.793823242E0,9.793922626E0
1.766512869E0,-4.785645287E-3,4.307080805E-2,9.789037704E0,9.789133627E0
1.768690706E0,0.000000000E0,4.366901144E-2,9.803394318E0,9.803491578E0
1.770922903E0,-9.571290575E-3,4.307080805E-2,9.798608780E0,9.798708115E0
1.773109569E0,0.000000000E0,4.307080805E-2,9.784252167E0,9.784346966E0
1.775316905E0,-9.571290575E-3,4.307080805E-2,9.793823242E0,9.793922626E0
1.777479585E0,9.571290575E-3,4.307080805E-2,9.793823242E0,9.793922626E0
1.779694488E0,0.000000000E0,5.264209956E-2,9.793823242E0,9.793964718E0
1.781887634E0,0.000000000E0,5.742774159E-2,9.798608780E0,9.798777065E0
1.784090608E0,0.000000000E0,4.785645381E-2,9.798608780E0,9.798725645E0
1.786282277E0,9.571290575E-3,4.307080805E-2,9.784252167E0,9.784351648E0
1.788478140E0,0.000000000E0,5.324030295E-2,9.803394318E0,9.803538885E0
1.790674429E0,-4.785645287E-3,5.264209956E-2,9.789037704E0,9.789180419E0
1.792871288E0,1.435693540E-2,5.264209956E-2,9.779465675E0,9.779617897E0
1.795069030E0,0.000000000E0,4.785645381E-2,9.793823242E0,9.793940164E0
1.797271413E0,0.000000000E0,3.888336942E-2,9.803394318E0,9.803471429E0
1.799457123E0,4.785645287E-3,4.307080805E-2,9.793823242E0,9.793919118E0
1.801653169E0,0.000000000E0,3.828516230E-2,9.793823242E0,9.793898072E0
1.803846680E0,-9.571290575E-3,5.742774159E-2,9.789037704E0,9.789210833E0
1.806045350E0,9.571290575E-3,5.324030295E-2,9.808179855E0,9.808329023E0
1.808235200E0,-9.571290575E-3,4.366901144E-2,9.798608780E0,9.798710763E0
1.810413789E0,-4.785645287E-3,3.828516230E-2,9.784252167E0,9.784328241E0
1.812634461E0,-9.571290575E-3,4.785645381E-2,9.793823242E0,9.793944841E0
1.814826935E0,-4.785645287E-3,4.366901144E-2,9.798608780E0,9.798707257E0
1.817024191E0,0.000000000E0,3.349951655E-2,9.784252167E0,9.784309515E0
1.819219891E0,-9.571290575E-3,4.785645381E-2,9.779465675E0,9.779587453E0
1.821416515E0,-4.785645287E-3,5.264209956E-2,9.774680138E0,9.774823062E0
1.823613658E0,-4.785645287E-3,4.785645381E-2,9.779465675E0,9.779583940E0
1.825808808E0,-4.785645287E-3,4.785645381E-2,9.779465675E0,9.779583940E0
1.828007905E0,4.785645287E-3,4.307080805E-2,9.779465675E0,9.779561692E0
1.830211437E0,-4.785645287E-3,4.366901144E-2,9.798608780E0,9.798707257E0
1.832395559E0,0.000000000E0,3.828516230E-2,9.774680138E0,9.774755114E0
1.834591340E0,-9.571290575E-3,3.349951655E-2,9.774680138E0,9.774742228E0
1.836784455E0,4.785645287E-3,4.307080805E-2,9.784252167E0,9.784348137E0
1.838983490E0,-4.785645287E-3,3.349951655E-2,9.779465675E0,9.779524222E0
1.841173179E0,9.571290575E-3,4.307080805E-2,9.798608780E0,9.798708115E0
1.843350689E0,-1.435693540E-2,4.366901144E-2,9.808179855E0,9.808287576E0
1.845567384E0,0.000000000E0,4.307080805E-2,9.798608780E0,9.798703441E0
1.847736267E0,-4.785645287E-3,4.307080805E-2,9.789037704E0,9.789133627E0
1.849943768E0,-4.785645287E-3,4.785645381E-2,9.774680138E0,9.774798460E0
1.852157696E0,4.785645287E-3,4.785645381E-2,9.769894600E0,9.770012980E0
1.854360953E0,-4.785645287E-3,5.264209956E-2,9.774680138E0,9.774823062E0
1.856556763E0,0.000000000E0,5.264209956E-2,9.779465675E0,9.779607358E0
1.858746522E0,-9.571290575E-3,6.221338734E-2,9.774680138E0,9.774882808E0
1.860935915E0,-4.785645287E-3,4.307080805E-2,9.779465675E0,9.779561692E0
1.863112113E0,-4.785645287E-3,4.307080805E-2,9.779465675E0,9.779561692E0
1.865327455E0,9.571290575E-3,4.366901144E-2,9.803394318E0,9.803496251E0
1.867530315E0,0.000000000E0,5.264209956E-2,9.793823242E0,9.793964718E0
1.869732555E0,0.000000000E0,3.828516230E-2,9.779465675E0,9.779540615E0
1.871923829E0,4.785645287E-3,3.349951655E-2,9.769894600E0,9.769953204E0
1.874112387E0,0.000000000E0,3.349951655E-2,9.779465675E0,9.779523051E0
1.876292299E0,0.000000000E0,4.785645381E-2,9.798608780E0,9.798725645E0
1.878509544E0,9.571290575E-3,5.264209956E-2,9.789037704E0,9.789183928E0
1.880701600E0,4.785645287E-3,3.828516230E-2,9.779465675E0,9.779541786E0
1.882887626E0,4.785645287E-3,3.828516230E-2,9.765109062E0,9.765185285E0
1.885097139E0,-9.571290575E-3,3.409772366E-2,9.808179855E0,9.808243795E0
1.887292970E0,-1.435693540E-2,3.349951655E-2,9.789037704E0,9.789105553E0
1.889493724E0,-4.785645287E-3,3.828516230E-2,9.789037704E0,9.789113741E0
1.891684948E0,9.571290575E-3,5.742774159E-2,9.803394318E0,9.803567193E0
1.893878084E0,4.785645287E-3,5.264209956E-2,9.779465675E0,9.779608529E0
1.896060711E0,-4.785645287E-3,3.828516230E-2,9.779465675E0,9.779541786E0
1.898248262E0,0.000000000E0,5.742774159E-2,9.793823242E0,9.793991609E0
1.900469636E0,4.785645287E-3,4.785645381E-2,9.793823242E0,9.793941333E0
1.902662498E0,-4.785645287E-3,4.307080805E-2,9.793823242E0,9.793919118E0
1.904849428E0,0.000000000E0,4.366901144E-2,9.803394318E0,9.803491578E0
1.907050030E0,4.785645287E-3,3.349951655E-2,9.784252167E0,9.784310685E0
1.909227592E0,-9.571290575E-3,2.931207791E-2,9.803394318E0,9.803442811E0
1.911452140E0,4.785645287E-3,4.785645381E-2,9.793823242E0,9.793941333E0
1.913643882E0,-9.571290575E-3,4.366901144E-2,9.798608780E0,9.798710763E0
1.915847718E0,0.000000000E0,3.349951655E-2,9.789037704E0,9.789095024E0
1.918036572E0,-9.571290575E-3,4.366901144E-2,9.803394318E0,9.803496251E0
1.920231153E0,-4.785645287E-3,3.349951655E-2,9.789037704E0,9.789096194E0
1.922426506E0,9.571290575E-3,4.307080805E-2,9.793823242E0,9.793922626E0
1.924622753E0,4.785645287E-3,3.828516230E-2,9.784252167E0,9.784328241E0
1.926818757E0,9.571290575E-3,3.828516230E-2,9.793823242E0,9.793902749E0
1.929008506E0,-4.785645287E-3,4.785645381E-2,9.793823242E0,9.793941333E0
1.931185732E0,-9.571290575E-3,4.785645381E-2,9.793823242E0,9.793944841E0
1.933408041E0,9.571290575E-3,4.307080805E-2,9.789037704E0,9.789137137E0
1.935604188E0,-4.785645287E-3,4.785645381E-2,9.784252167E0,9.784370373E0
1.937805381E0,-9.571290575E-3,4.307080805E-2,9.789037704E0,9.789137137E0
1.939996289E0,-4.785645287E-3,3.409772366E-2,9.808179855E0,9.808240292E0
1.942199250E0,4.785645287E-3,5.742774159E-2,9.798608780E0,9.798778234E0
1.944385805E0,0.000000000E0,4.366901144E-2,9.798608780E0,9.798706088E0
1.946582094E0,9.571290575E-3,3.828516230E-2,9.789037704E0,9.789117250E0
1.948775423E0,0.000000000E0,4.785645381E-2,9.789037704E0,9.789154684E0
1.950975140E0,-4.785645287E-3,3.828516230E-2,9.789037704E0,9.789113741E0
1.953170941E0,9.571290575E-3,4.785645381E-2,9.779465675E0,9.779587453E0
1.955365430E0,-9.571290575E-3,4.785645381E-2,9.793823242E0,9.793944841E0
1.957560854E0,0.000000000E0,3.828516230E-2,9.793823242E0,9.793898072E0
1.959756918E0,-1.435693540E-2,3.828516230E-2,9.789037704E0,9.789123099E0
1.961946687E0,-4.785645287E-3,4.307080805E-2,9.784252167E0,9.784348137E0
1.964123954E0,-1.435693540E-2,4.785645381E-2,9.784252167E0,9.784379736E0
1.966345531E0,-4.785645287E-3,4.366901144E-2,9.808179855E0,9.808278236E0
1.968538057E0,1.435693540E-2,4.307080805E-2,9.798608780E0,9.798713958E0
1.970729576E0,-4.785645287E-3,4.785645381E-2,9.789037704E0,9.789155853E0
1.972932304E0,-9.571290575E-3,4.307080805E-2,9.784252167E0,9.784351648E0
1.975121919E0,0.000000000E0,5.742774159E-2,9.765109062E0,9.765277924E0
1.977302400E0,0.000000000E0,3.349951655E-2,9.784252167E0,9.784309515E0
1.979520591E0,-9.571290575E-3,4.307080805E-2,9.793823242E0,9.793922626E0
1.981716148E0,1.435693540E-2,4.785645381E-2,9.774680138E0,9.774807832E0
1.983918612E0,0.000000000E0,3.409772366E-2,9.808179855E0,9.808239125E0
1.986110455E0,4.785645287E-3,3.828516230E-2,9.793823242E0,9.793899242E0
1.988304934E0,-4.785645287E-3,4.307080805E-2,9.793823242E0,9.793919118E0
1.990499382E0,0.000000000E0,5.264209956E-2,9.789037704E0,9.789179249E0
1.992694775E0,9.571290575E-3,4.785645381E-2,9.784252167E0,9.784373885E0
1.994884269E0,4.785645287E-3,4.366901144E-2,9.798608780E0,9.798707257E0
1.997061028E0,9.571290575E-3,2.871387079E-2,9.784252167E0,9.784298981E0
1.999283257E0,9.571290575E-3,5.264209956E-2,9.779465675E0,9.779612042E0
2.001479413E0,-4.785645287E-3,5.742774159E-2,9.779465675E0,9.779635461E0
2.003683006E0,0.000000000E0,5.264209956E-2,9.779465675E0,9.779607358E0
2.005872144E0,0.000000000E0,3.828516230E-2,9.784252167E0,9.784327070E0
2.008060437E0,0.000000000E0,3.828516230E-2,9.789037704E0,9.789112571E0
2.010236798E0,9.571290575E-3,4.307080805E-2,9.784252167E0,9.784351648E0
2.012457918E0,-9.571290575E-3,3.888336942E-2,9.798608780E0,9.798690604E0
2.014655032E0,4.785645287E-3,3.828516230E-2,9.789037704E0,9.789113741E0
2.016857974E0,9.571290575E-3,4.307080805E-2,9.784252167E0,9.784351648E0
2.019040448E0,9.571290575E-3,5.264209956E-2,9.779465675E0,9.779612042E0
2.021217979E0,-4.785645287E-3,5.264209956E-2,9.789037704E0,9.789180419E0
2.023438510E0,-1.435693540E-2,5.264209956E-2,9.784252167E0,9.784404314E0
2.025633710E0,0.000000000E0,5.264209956E-2,9.774680138E0,9.774821890E0
2.027829175E0,-1.435693540E-2,4.785645381E-2,9.784252167E0,9.784379736E0
2.029999626E0,-4.785645287E-3,3.828516230E-2,9.784252167E0,9.784328241E0
2.032221031E0,0.000000000E0,3.888336942E-2,9.808179855E0,9.808256929E0
2.034417116E0,-4.785645287E-3,4.785645381E-2,9.793823242E0,9.793941333E0
2.036619804E0,0.000000000E0,4.845465720E-2,9.808179855E0,9.808299543E0
2.038810509E0,0.000000000E0,3.349951655E-2,9.779465675E0,9.779523051E0
2.040999830E0,4.785645287E-3,4.785645381E-2,9.784252167E0,9.784370373E0
2.043175255E0,9.571290575E-3,6.221338734E-2,9.779465675E0,9.779668246E0
2.045396425E0,0.000000000E0,5.264209956E-2,9.784252167E0,9.784393781E0
2.047592837E0,0.000000000E0,4.307080805E-2,9.779465675E0,9.779560521E0
2.049788556E0,4.785645287E-3,4.785645381E-2,9.789037704E0,9.789155853E0
2.051965426E0,0.000000000E0,3.888336942E-2,9.798608780E0,9.798685929E0
2.054194959E0,4.785645287E-3,2.392822690E-2,9.774680138E0,9.774710597E0
2.056384881E0,0.000000000E0,2.871387079E-2,9.784252167E0,9.784294300E0
2.058579593E0,-4.785645287E-3,1.974078640E-2,9.803394318E0,9.803415361E0
2.060767468E0,-9.571290575E-3,4.307080805E-2,9.789037704E0,9.789137137E0
2.062968772E0,-9.571290575E-3,4.785645381E-2,9.793823242E0,9.793944841E0
2.065180555E0,0.000000000E0,5.264209956E-2,9.779465675E0,9.779607358E0
2.067355808E0,-1.435693540E-2,4.307080805E-2,9.769894600E0,9.770000087E0
2.069551272E0,-1.435693540E-2,5.324030295E-2,9.798608780E0,9.798763936E0
2.071741947E0,0.000000000E0,4.307080805E-2,9.798608780E0,9.798703441E0
2.073946791E0,0.000000000E0,3.349951655E-2,9.789037704E0,9.789095024E0
2.076148878E0,-4.785645287E-3,3.828516230E-2,9.769894600E0,9.769970785E0
2.078335065E0,-1.435693540E-2,6.221338734E-2,9.774082184E0,9.774290724E0
2.080530795E0,-4.785645287E-3,4.307080805E-2,9.784252167E0,9.784348137E0
2.082725578E0,0.000000000E0,4.785645381E-2,9.789037704E0,9.789154684E0
2.084916710E0,0.000000000E0,4.366901144E-2,9.803394318E0,9.803491578E0
2.087087771E0,-9.571290575E-3,3.828516230E-2,9.793823242E0,9.793902749E0
2.089283054E0,-9.571290575E-3,4.785645381E-2,9.789037704E0,9.789159363E0
2.091486982E0,0.000000000E0,4.785645381E-2,9.789037704E0,9.789154684E0
2.093714908E0,4.785645287E-3,4.785645381E-2,9.793823242E0,9.793941333E0
2.095902346E0,-9.571290575E-3,4.307080805E-2,9.760323524E0,9.760423249E0
2.098079237E0,4.785645287E-3,4.785645381E-2,9.774680138E0,9.774798460E0
2.100293765E0,9.571290575E-3,4.307080805E-2,9.789037704E0,9.789137137E0
2.102483036E0,0.000000000E0,3.349951655E-2,9.793823242E0,9.793880534E0
2.104666324E0,-4.785645287E-3,5.264209956E-2,9.798608780E0,9.798751355E0
2.106881961E0,9.571290575E-3,3.349951655E-2,9.798608780E0,9.798670718E0
2.109078719E0,-4.785645287E-3,4.785645381E-2,9.798608780E0,9.798726813E0
2.111280694E0,4.785645287E-3,3.349951655E-2,9.798608780E0,9.798667213E0
2.113469028E0,-4.785645287E-3,4.307080805E-2,9.784252167E0,9.784348137E0
2.115665073E0,0.000000000E0,4.307080805E-2,9.769894600E0,9.769989539E0
2.117860904E0,-9.571290575E-3,4.785645381E-2,9.793823242E0,9.793944841E0
2.120056928E0,0.000000000E0,4.785645381E-2,9.784252167E0,9.784369203E0
2.122252709E0,-4.785645287E-3,4.307080805E-2,9.789037704E0,9.789133627E0
2.124448825E0,0.000000000E0,3.349951655E-2,9.789037704E0,9.789095024E0
2.126647027E0,4.785645287E-3,4.845465720E-2,9.803394318E0,9.803515232E0
2.128835065E0,-4.785645287E-3,4.785645381E-2,9.789037704E0,9.789155853E0
2.131010674E0,0.000000000E0,4.307080805E-2,9.798608780E0,9.798703441E0
2.133231479E0,9.571290575E-3,4.785645381E-2,9.784252167E0,9.784373885E0
2.135426223E0,4.785645287E-3,4.307080805E-2,9.793823242E0,9.793919118E0
2.137622796E0,0.000000000E0,4.307080805E-2,9.769894600E0,9.769989539E0
2.139813236E0,4.785645287E-3,5.264209956E-2,9.789037704E0,9.789180419E0
2.141983809E0,0.000000000E0,4.785645381E-2,9.789037704E0,9.789154684E0
2.144189182E0,-9.571290575E-3,4.785645381E-2,9.784252167E0,9.784373885E0
2.146408409E0,0.000000000E0,5.264209956E-2,9.789037704E0,9.789179249E0
2.148609613E0,0.000000000E0,4.785645381E-2,9.798608780E0,9.798725645E0
2.150805353E0,9.571290575E-3,4.307080805E-2,9.789037704E0,9.789137137E0
2.152995233E0,9.571290575E-3,3.888336942E-2,9.803394318E0,9.803476102E0
2.155191053E0,1.435693540E-2,3.349951655E-2,9.769894600E0,9.769962581E0
2.157387119E0,0.000000000E0,4.785645381E-2,9.789037704E0,9.789154684E0
2.159583235E0,-1.435693540E-2,4.307080805E-2,9.793823242E0,9.793928472E0
2.161773665E0,-4.785645287E-3,4.785645381E-2,9.793823242E0,9.793941333E0
2.163949843E0,-4.785645287E-3,4.307080805E-2,9.793823242E0,9.793919118E0
2.166170129E0,0.000000000E0,4.307080805E-2,9.784252167E0,9.784346966E0
2.168365980E0,9.571290575E-3,4.785645381E-2,9.803394318E0,9.803515798E0
2.170568129E0,0.000000000E0,4.785645381E-2,9.789037704E0,9.789154684E0
2.172758091E0,-4.785645287E-3,5.264209956E-2,9.784252167E0,9.784394951E0
2.174947737E0,1.914258115E-2,4.307080805E-2,9.784252167E0,9.784365692E0
2.177124892E0,0.000000000E0,4.785645381E-2,9.793823242E0,9.793940164E0
2.179347559E0,0.000000000E0,5.264209956E-2,9.784252167E0,9.784393781E0
2.181544824E0,4.785645287E-3,3.349951655E-2,9.793823242E0,9.793881703E0
2.183752649E0,0.000000000E0,4.785645381E-2,9.793823242E0,9.793940164E0
2.185933242E0,-9.571290575E-3,3.349951655E-2,9.793823242E0,9.793885211E0
2.188129043E0,-4.785645287E-3,4.366901144E-2,9.798608780E0,9.798707257E0
2.190323021E0,4.785645287E-3,3.349951655E-2,9.798608780E0,9.798667213E0
2.192514978E0,-9.571290575E-3,4.307080805E-2,9.784252167E0,9.784351648E0
2.194689570E0,1.435693540E-2,5.264209956E-2,9.793823242E0,9.793975240E0
2.196901514E0,4.785645287E-3,5.802594870E-2,9.808179855E0,9.808352664E0
2.199110223E0,-4.785645287E-3,4.785645381E-2,9.774680138E0,9.774798460E0
2.201310998E0,4.785645287E-3,4.307080805E-2,9.784252167E0,9.784348137E0
2.203503453E0,4.785645287E-3,4.785645381E-2,9.784252167E0,9.784370373E0
2.205696038E0,4.785645287E-3,4.366901144E-2,9.803394318E0,9.803492747E0
2.207885797E0,-4.785645287E-3,4.785645381E-2,9.784252167E0,9.784370373E0
2.210063166E0,0.000000000E0,5.742774159E-2,9.798608780E0,9.798777065E0
2.212284439E0,-4.785645287E-3,3.828516230E-2,9.784252167E0,9.784328241E0
2.214474928E0,-4.785645287E-3,4.307080805E-2,9.769894600E0,9.769990711E0
2.216657454E0,0.000000000E0,3.828516230E-2,9.774680138E0,9.774755114E0
2.218872003E0,0.000000000E0,4.366901144E-2,9.803394318E0,9.803491578E0
2.221067214E0,4.785645287E-3,5.264209956E-2,9.779465675E0,9.779608529E0
2.223269677E0,1.435693540E-2,5.264209956E-2,9.793823242E0,9.793975240E0
2.225459233E0,1.435693540E-2,5.264209956E-2,9.784252167E0,9.784404314E0
2.227649164E0,4.785645287E-3,4.307080805E-2,9.798608780E0,9.798704609E0
2.229821548E0,-9.571290575E-3,4.785645381E-2,9.784252167E0,9.784373885E0
2.232023085E0,-4.785645287E-3,4.785645381E-2,9.789037704E0,9.789155853E0
2.234244389E0,0.000000000E0,4.307080805E-2,9.798608780E0,9.798703441E0
2.236444615E0,4.785645287E-3,4.307080805E-2,9.779465675E0,9.779561692E0
2.238640467E0,9.571290575E-3,3.828516230E-2,9.789037704E0,9.789117250E0
2.240825301E0,-4.785645287E-3,4.785645381E-2,9.779465675E0,9.779583940E0
2.243007959E0,-4.785645287E-3,3.828516230E-2,9.784252167E0,9.784328241E0
2.245222213E0,-9.571290575E-3,5.264209956E-2,9.779465675E0,9.779612042E0
2.247418523E0,0.000000000E0,3.349951655E-2,9.774680138E0,9.774737542E0
2.249619745E0,0.000000000E0,5.264209956E-2,9.784252167E0,9.784393781E0
2.251810816E0,0.000000000E0,5.264209956E-2,9.793823242E0,9.793964718E0
2.254005802E0,0.000000000E0,4.785645381E-2,9.793823242E0,9.793940164E0
2.256201370E0,0.000000000E0,2.931207791E-2,9.808179855E0,9.808223655E0
2.258397363E0,4.785645287E-3,5.324030295E-2,9.803394318E0,9.803540053E0
2.260593673E0,0.000000000E0,4.366901144E-2,9.808179855E0,9.808277069E0
2.262783788E0,-1.435693540E-2,4.845465720E-2,9.798608780E0,9.798739102E0
2.264963048E0,-4.785645287E-3,4.845465720E-2,9.808179855E0,9.808300711E0
2.267183578E0,0.000000000E0,4.307080805E-2,9.793823242E0,9.793917949E0
2.269378025E0,0.000000000E0,4.307080805E-2,9.784252167E0,9.784346966E0
2.271576593E0,0.000000000E0,4.307080805E-2,9.789037704E0,9.789132458E0
2.273759384E0,-4.785645287E-3,4.307080805E-2,9.793823242E0,9.793919118E0
2.275964380E0,4.785645287E-3,4.307080805E-2,9.779465675E0,9.779561692E0
2.278160608E0,9.571290575E-3,4.307080805E-2,9.789037704E0,9.789137137E0
2.280359359E0,4.785645287E-3,3.828516230E-2,9.793823242E0,9.793899242E0
2.282553737E0,1.435693540E-2,4.307080805E-2,9.798608780E0,9.798713958E0
2.284749730E0,-4.785645287E-3,4.366901144E-2,9.808179855E0,9.808278236E0
2.286945053E0,-9.571290575E-3,4.307080805E-2,9.779465675E0,9.779565205E0
2.289139654E0,-4.785645287E-3,5.264209956E-2,9.793823242E0,9.793965887E0
2.291335637E0,4.785645287E-3,4.307080805E-2,9.789037704E0,9.789133627E0
2.293531763E0,-9.571290575E-3,5.264209956E-2,9.798608780E0,9.798754861E0
2.295721552E0,9.571290575E-3,3.828516230E-2,9.793823242E0,9.793902749E0
2.297898870E0,4.785645287E-3,5.264209956E-2,9.789037704E0,9.789180419E0
2.300120122E0,4.785645287E-3,4.785645381E-2,9.789037704E0,9.789155853E0
2.302310928E0,1.435693540E-2,5.742774159E-2,9.789037704E0,9.789216682E0
2.304495478E0,-9.571290575E-3,5.264209956E-2,9.784252167E0,9.784398462E0
2.306700698E0,4.785645287E-3,4.785645381E-2,9.798608780E0,9.798726813E0
2.308877161E0,9.571290575E-3,3.828516230E-2,9.779465675E0,9.779545299E0
2.311104761E0,-4.785645287E-3,3.828516230E-2,9.798608780E0,9.798684742E0
2.313294916E0,0.000000000E0,3.828516230E-2,9.774680138E0,9.774755114E0
2.315497198E0,4.785645287E-3,5.264209956E-2,9.784252167E0,9.784394951E0
2.317686782E0,0.000000000E0,3.349951655E-2,9.769894600E0,9.769952032E0
2.319883967E0,-4.785645287E-3,4.366901144E-2,9.817750931E0,9.817849216E0
2.322078863E0,-9.571290575E-3,4.307080805E-2,9.798608780E0,9.798708115E0
2.324274206E0,-4.785645287E-3,3.828516230E-2,9.784252167E0,9.784328241E0
2.326469558E0,-9.571290575E-3,5.324030295E-2,9.812965393E0,9.813114488E0
2.328661788E0,-4.785645287E-3,4.785645381E-2,9.798608780E0,9.798726813E0
2.330845687E0,-4.785645287E-3,4.785645381E-2,9.803394318E0,9.803512294E0
2.333057643E0,0.000000000E0,4.307080805E-2,9.774680138E0,9.774775030E0
2.335250778E0,4.785645287E-3,3.828516230E-2,9.784252167E0,9.784328241E0
2.337442479E0,-4.785645287E-3,4.785645381E-2,9.789037704E0,9.789155853E0
2.339646510E0,0.000000000E0,5.264209956E-2,9.789037704E0,9.789179249E0
2.341834967E0,-4.785645287E-3,4.785645381E-2,9.793823242E0,9.793941333E0
2.344014704E0,0.000000000E0,3.888336942E-2,9.808179855E0,9.808256929E0
2.346232935E0,-9.571290575E-3,4.785645381E-2,9.784252167E0,9.784373885E0
2.348428798E0,4.785645287E-3,5.324030295E-2,9.812965393E0,9.813110987E0
2.350630905E0,-4.785645287E-3,4.366901144E-2,9.803394318E0,9.803492747E0
2.352826990E0,9.571290575E-3,5.264209956E-2,9.793823242E0,9.793969394E0
2.355029199E0,-9.571290575E-3,4.785645381E-2,9.789037704E0,9.789159363E0
2.357231408E0,0.000000000E0,4.785645381E-2,9.769894600E0,9.770011808E0
2.359389465E0,-9.571290575E-3,4.307080805E-2,9.774680138E0,9.774779716E0
2.361615728E0,0.000000000E0,3.349951655E-2,9.793823242E0,9.793880534E0
2.363827489E0,-1.435693540E-2,4.785645381E-2,9.779465675E0,9.779593307E0
2.366002671E0,0.000000000E0,4.307080805E-2,9.779465675E0,9.779560521E0
2.368192714E0,-9.571290575E-3,3.409772366E-2,9.798608780E0,9.798672782E0
2.370383011E0,-4.785645287E-3,5.264209956E-2,9.793823242E0,9.793965887E0
2.372585017E0,-9.571290575E-3,3.828516230E-2,9.789037704E0,9.789117250E0
2.374773982E0,-4.785645287E-3,5.324030295E-2,9.803394318E0,9.803540053E0
2.376950078E0,-4.785645287E-3,5.264209956E-2,9.784252167E0,9.784394951E0
2.379171158E0,0.000000000E0,5.324030295E-2,9.798608780E0,9.798753418E0
2.381361516E0,-4.785645287E-3,4.785645381E-2,9.789037704E0,9.789155853E0
2.383547125E0,0.000000000E0,3.349951655E-2,9.784252167E0,9.784309515E0
2.385759130E0,4.785645287E-3,3.409772366E-2,9.798608780E0,9.798669276E0
2.387955277E0,-4.785645287E-3,4.845465720E-2,9.798608780E0,9.798729753E0
2.390157527E0,-1.435693540E-2,4.785645381E-2,9.779465675E0,9.779593307E0
2.392347469E0,-9.571290575E-3,5.264209956E-2,9.793823242E0,9.793969394E0
2.394537389E0,0.000000000E0,4.845465720E-2,9.812965393E0,9.813085023E0
2.396718145E0,0.000000000E0,4.785645381E-2,9.793823242E0,9.793940164E0
2.398933732E0,0.000000000E0,5.742774159E-2,9.793823242E0,9.793991609E0
2.401129878E0,-4.785645287E-3,5.742774159E-2,9.779465675E0,9.779635461E0
2.403330968E0,-9.571290575E-3,4.785645381E-2,9.789037704E0,9.789159363E0
2.405522415E0,0.000000000E0,5.264209956E-2,9.789037704E0,9.789179249E0
2.407714870E0,-4.785645287E-3,4.307080805E-2,9.793823242E0,9.793919118E0
2.409894039E0,0.000000000E0,3.828516230E-2,9.774680138E0,9.774755114E0
2.412109522E0,4.785645287E-3,3.828516230E-2,9.789037704E0,9.789113741E0
2.414298437E0,0.000000000E0,4.307080805E-2,9.784252167E0,9.784346966E0
2.416474585E0,9.571290575E-3,4.785645381E-2,9.779465675E0,9.779587453E0
2.418671871E0,4.785645287E-3,3.349951655E-2,9.798608780E0,9.798667213E0
2.420893377E0,4.785645287E-3,5.264209956E-2,9.798608780E0,9.798751355E0
2.423089331E0,1.435693540E-2,5.264209956E-2,9.798608780E0,9.798760704E0
2.425267167E0,-1.435693540E-2,4.307080805E-2,9.793823242E0,9.793928472E0
2.427485002E0,4.785645287E-3,3.349951655E-2,9.789037704E0,9.789096194E0
2.429694677E0,4.785645287E-3,5.264209956E-2,9.789037704E0,9.789180419E0
2.431903417E0,-4.785645287E-3,4.785645381E-2,9.784252167E0,9.784370373E0
2.434067989E0,-4.785645287E-3,4.307080805E-2,9.789037704E0,9.789133627E0
2.436261054E0,0.000000000E0,4.785645381E-2,9.789037704E0,9.789154684E0
2.438454006E0,-4.785645287E-3,4.307080805E-2,9.793823242E0,9.793919118E0
2.440654089E0,-4.785645287E-3,4.785645381E-2,9.779465675E0,9.779583940E0
2.442843563E0,0.000000000E0,5.264209956E-2,9.784252167E0,9.784393781E0
2.445049191E0,-9.571290575E-3,5.742774159E-2,9.789037704E0,9.789210833E0
2.447243780E0,0.000000000E0,5.264209956E-2,9.803394318E0,9.803535655E0
2.449441494E0,0.000000000E0,4.366901144E-2,9.808179855E0,9.808277069E0
2.451634751E0,-1.914258115E-2,4.366901144E-2,9.798608780E0,9.798724787E0
2.453831600E0,-4.785645287E-3,4.785645381E-2,9.793823242E0,9.793941333E0
2.456028529E0,-9.571290575E-3,3.409772366E-2,9.798608780E0,9.798672782E0
2.458224035E0,0.000000000E0,4.307080805E-2,9.798608780E0,9.798703441E0
2.460420355E0,0.000000000E0,3.828516230E-2,9.798608780E0,9.798683574E0
2.462610073E0,-9.571290575E-3,3.349951655E-2,9.789037704E0,9.789099704E0
2.464788570E0,-4.785645287E-3,4.307080805E-2,9.789037704E0,9.789133627E0
2.467006537E0,-4.785645287E-3,4.307080805E-2,9.789037704E0,9.789133627E0
2.469202582E0,4.785645287E-3,3.828516230E-2,9.784252167E0,9.784328241E0
2.471403957E0,1.435693540E-2,4.307080805E-2,9.784252167E0,9.784357500E0
2.473588700E0,0.000000000E0,2.871387079E-2,9.793823242E0,9.793865334E0
2.475768185E0,-4.785645287E-3,3.888336942E-2,9.798608780E0,9.798687098E0
2.477988613E0,4.785645287E-3,5.264209956E-2,9.789037704E0,9.789180419E0
2.480183121E0,-4.785645287E-3,4.307080805E-2,9.789037704E0,9.789133627E0
2.482384019E0,-4.785645287E-3,4.307080805E-2,9.784252167E0,9.784348137E0
2.484573533E0,0.000000000E0,5.742774159E-2,9.779465675E0,9.779634290E0
2.486769721E0,-4.785645287E-3,3.349951655E-2,9.784252167E0,9.784310685E0
2.488965348E0,0.000000000E0,4.785645381E-2,9.793823242E0,9.793940164E0
2.491161596E0,-4.785645287E-3,3.349951655E-2,9.784252167E0,9.784310685E0
2.493357560E0,-9.571290575E-3,4.785645381E-2,9.784252167E0,9.784373885E0
2.495549770E0,4.785645287E-3,4.785645381E-2,9.779465675E0,9.779583940E0
2.497730109E0,0.000000000E0,4.307080805E-2,9.793823242E0,9.793917949E0
2.499945166E0,0.000000000E0,3.349951655E-2,9.779465675E0,9.779523051E0
2.502134467E0,-9.571290575E-3,6.221338734E-2,9.793823242E0,9.794025516E0
2.504316067E0,-4.785645287E-3,3.828516230E-2,9.789037704E0,9.789113741E0
2.506532690E0,0.000000000E0,3.349951655E-2,9.793823242E0,9.793880534E0
2.508728634E0,4.785645287E-3,4.845465720E-2,9.817750931E0,9.817871668E0
2.510931555E0,0.000000000E0,3.888336942E-2,9.808179855E0,9.808256929E0
2.513122006E0,0.000000000E0,3.828516230E-2,9.793823242E0,9.793898072E0
2.515317918E0,-4.785645287E-3,3.828516230E-2,9.779465675E0,9.779541786E0
2.517511726E0,-4.785645287E-3,4.785645381E-2,9.793823242E0,9.793941333E0
2.519707567E0,-1.435693540E-2,3.409772366E-2,9.803394318E0,9.803464129E0
2.521903622E0,-1.914258115E-2,4.785645381E-2,9.779465675E0,9.779601504E0
2.524099880E0,-9.571290575E-3,4.785645381E-2,9.769894600E0,9.770016497E0
2.526295518E0,0.000000000E0,4.307080805E-2,9.779465675E0,9.779560521E0
2.528486029E0,4.785645287E-3,3.828516230E-2,9.789037704E0,9.789113741E0
2.530667212E0,-1.435693540E-2,3.888336942E-2,9.793823242E0,9.793910952E0
2.532884680E0,-4.785645287E-3,3.349951655E-2,9.779465675E0,9.779524222E0
2.535079393E0,-4.785645287E-3,4.307080805E-2,9.793823242E0,9.793919118E0
2.537280321E0,-4.785645287E-3,4.307080805E-2,9.784252167E0,9.784348137E0
2.539471076E0,-9.571290575E-3,5.264209956E-2,9.789037704E0,9.789183928E0
2.541662116E0,-9.571290575E-3,3.409772366E-2,9.793823242E0,9.793887275E0
2.543840288E0,-1.435693540E-2,4.845465720E-2,9.798608780E0,9.798739102E0
2.546052955E0,0.000000000E0,5.264209956E-2,9.798608780E0,9.798750186E0
2.548225969E0,4.785645287E-3,4.785645381E-2,9.798608780E0,9.798726813E0
2.550431423E0,-1.435693540E-2,3.349951655E-2,9.789037704E0,9.789105553E0
2.552641202E0,-4.785645287E-3,3.828516230E-2,9.774680138E0,9.774756286E0
2.554842272E0,-1.435693540E-2,3.409772366E-2,9.798608780E0,9.798678625E0
2.557032517E0,-4.785645287E-3,4.307080805E-2,9.779465675E0,9.779561692E0
2.559234036E0,4.785645287E-3,3.828516230E-2,9.779465675E0,9.779541786E0
2.561425056E0,-4.785645287E-3,4.785645381E-2,9.789037704E0,9.789155853E0
2.563607124E0,0.000000000E0,4.785645381E-2,9.784252167E0,9.784369203E0
2.565822943E0,-4.785645287E-3,5.742774159E-2,9.789037704E0,9.789207324E0
2.568015804E0,-4.785645287E-3,4.785645381E-2,9.774680138E0,9.774798460E0
2.570200751E0,-9.571290575E-3,5.264209956E-2,9.784252167E0,9.784398462E0
2.572384783E0,4.785645287E-3,4.307080805E-2,9.798608780E0,9.798704609E0
2.574598569E0,0.000000000E0,4.785645381E-2,9.803394318E0,9.803511125E0
2.576778917E0,9.571290575E-3,4.307080805E-2,9.793823242E0,9.793922626E0
2.578996731E0,-9.571290575E-3,4.366901144E-2,9.803394318E0,9.803496251E0
2.581167701E0,0.000000000E0,5.324030295E-2,9.808179855E0,9.808324353E0
2.583396114E0,0.000000000E0,3.828516230E-2,9.789037704E0,9.789112571E0
2.585585782E0,-4.785645287E-3,3.828516230E-2,9.789037704E0,9.789113741E0
2.587786618E0,-4.785645287E-3,5.742774159E-2,9.769894600E0,9.770064552E0
2.589976021E0,-1.435693540E-2,4.307080805E-2,9.774680138E0,9.774785574E0
2.592171830E0,0.000000000E0,4.307080805E-2,9.769894600E0,9.769989539E0
2.594361925E0,-4.785645287E-3,3.828516230E-2,9.793823242E0,9.793899242E0
2.596538429E0,-1.914258115E-2,3.349951655E-2,9.774680138E0,9.774756286E0
2.598760089E0,0.000000000E0,5.264209956E-2,9.789037704E0,9.789179249E0
2.600957160E0,0.000000000E0,4.785645381E-2,9.793823242E0,9.793940164E0
2.603158912E0,-9.571290575E-3,5.324030295E-2,9.803394318E0,9.803543558E0
2.605347541E0,9.571290575E-3,4.785645381E-2,9.793823242E0,9.793944841E0
2.607536812E0,0.000000000E0,5.264209956E-2,9.774680138E0,9.774821890E0
2.609713487E0,-4.785645287E-3,5.742774159E-2,9.803394318E0,9.803563689E0
2.611935534E0,-4.785645287E-3,3.828516230E-2,9.784252167E0,9.784328241E0
2.614131456E0,-4.785645287E-3,5.264209956E-2,9.789037704E0,9.789180419E0
2.616333932E0,0.000000000E0,4.366901144E-2,9.812965393E0,9.813062559E0
2.618525510E0,4.785645287E-3,4.307080805E-2,9.789037704E0,9.789133627E0
2.620719490E0,-4.785645287E-3,4.785645381E-2,9.784252167E0,9.784370373E0
2.622914955E0,-4.785645287E-3,5.742774159E-2,9.774680138E0,9.774850006E0
2.625111804E0,-4.785645287E-3,3.888336942E-2,9.808179855E0,9.808258097E0
2.627306465E0,4.785645287E-3,5.802594870E-2,9.803394318E0,9.803567211E0
2.629496915E0,4.785645287E-3,4.785645381E-2,9.798608780E0,9.798726813E0
2.631672026E0,0.000000000E0,4.845465720E-2,9.812965393E0,9.813085023E0
2.633894823E0,4.785645287E-3,4.307080805E-2,9.774680138E0,9.774776202E0
2.636086168E0,9.571290575E-3,3.828516230E-2,9.793823242E0,9.793902749E0
2.638275256E0,4.785645287E-3,4.307080805E-2,9.774680138E0,9.774776202E0
2.640475258E0,1.435693540E-2,3.349951655E-2,9.789037704E0,9.789105553E0
2.642651954E0,-4.785645287E-3,3.828516230E-2,9.779465675E0,9.779541786E0
2.644877662E0,0.000000000E0,3.828516230E-2,9.774680138E0,9.774755114E0
2.647069608E0,-9.571290575E-3,4.785645381E-2,9.774680138E0,9.774801975E0
2.649271980E0,-4.785645287E-3,2.871387079E-2,9.793823242E0,9.793866503E0
2.651461483E0,-4.785645287E-3,4.307080805E-2,9.793823242E0,9.793919118E0
2.653658546E0,0.000000000E0,2.931207791E-2,9.798608780E0,9.798652623E0
2.655854500E0,0.000000000E0,4.307080805E-2,9.789037704E0,9.789132458E0
2.658048603E0,4.785645287E-3,5.264209956E-2,9.784252167E0,9.784394951E0
2.660244514E0,4.785645287E-3,5.264209956E-2,9.789037704E0,9.789180419E0
2.662433764E0,0.000000000E0,3.828516230E-2,9.793823242E0,9.793898072E0
2.664611458E0,0.000000000E0,3.888336942E-2,9.798608780E0,9.798685929E0
2.666832405E0,9.571290575E-3,4.785645381E-2,9.774680138E0,9.774801975E0
2.669022529E0,0.000000000E0,4.307080805E-2,9.779465675E0,9.779560521E0
2.671206276E0,4.785645287E-3,4.307080805E-2,9.789037704E0,9.789133627E0
2.673421466E0,-9.571290575E-3,5.264209956E-2,9.784252167E0,9.784398462E0
2.675612567E0,0.000000000E0,4.307080805E-2,9.769894600E0,9.769989539E0
2.677799008E0,-4.785645287E-3,2.871387079E-2,9.784252167E0,9.784295470E0
2.680007607E0,0.000000000E0,3.349951655E-2,9.784252167E0,9.784309515E0
2.682203611E0,-9.571290575E-3,5.742774159E-2,9.784252167E0,9.784425380E0
2.684404641E0,4.785645287E-3,3.409772366E-2,9.803394318E0,9.803454784E0
2.686595548E0,9.571290575E-3,4.307080805E-2,9.803394318E0,9.803493604E0
2.688793444E0,1.435693540E-2,4.366901144E-2,9.817750931E0,9.817858547E0
2.690988177E0,4.785645287E-3,4.307080805E-2,9.798608780E0,9.798704609E0
2.693182860E0,0.000000000E0,4.785645381E-2,9.789037704E0,9.789154684E0
2.695378263E0,9.571290575E-3,4.307080805E-2,9.779465675E0,9.779565205E0
2.697574207E0,-9.571290575E-3,4.307080805E-2,9.769894600E0,9.769994227E0
2.699770638E0,9.571290575E-3,5.264209956E-2,9.789037704E0,9.789183928E0
2.701960223E0,-4.785645287E-3,4.785645381E-2,9.784252167E0,9.784370373E0
2.704137297E0,9.571290575E-3,4.785645381E-2,9.784252167E0,9.784373885E0
2.706359902E0,-4.785645287E-3,4.785645381E-2,9.793823242E0,9.793941333E0
2.708549071E0,0.000000000E0,4.307080805E-2,9.774680138E0,9.774775030E0
2.710731851E0,-9.571290575E-3,3.828516230E-2,9.784252167E0,9.784331752E0
2.712946775E0,9.571290575E-3,3.828516230E-2,9.784252167E0,9.784331752E0
2.715145018E0,9.571290575E-3,2.871387079E-2,9.789037704E0,9.789084496E0
2.717353757E0,9.571290575E-3,3.349951655E-2,9.784252167E0,9.784314196E0
2.719533648E0,4.785645287E-3,3.349951655E-2,9.789037704E0,9.789096194E0
2.721729449E0,9.571290575E-3,4.307080805E-2,9.793823242E0,9.793922626E0
2.723924375E0,0.000000000E0,5.742774159E-2,9.793823242E0,9.793991609E0
2.726122729E0,9.571290575E-3,4.307080805E-2,9.803394318E0,9.803493604E0
2.728321277E0,0.000000000E0,4.785645381E-2,9.789037704E0,9.789154684E0
2.730529773E0,0.000000000E0,4.785645381E-2,9.789037704E0,9.789154684E0
2.732708434E0,-4.785645287E-3,4.785645381E-2,9.789037704E0,9.789155853E0
2.734904967E0,4.785645287E-3,2.871387079E-2,9.793823242E0,9.793866503E0
2.737096748E0,1.914258115E-2,3.828516230E-2,9.784252167E0,9.784345796E0
2.739296974E0,4.785645287E-3,4.785645381E-2,9.784252167E0,9.784370373E0
2.741487486E0,-4.785645287E-3,4.785645381E-2,9.798608780E0,9.798726813E0
2.743663868E0,0.000000000E0,4.785645381E-2,9.784252167E0,9.784369203E0
2.745884235E0,1.435693540E-2,4.307080805E-2,9.784252167E0,9.784357500E0
2.748079710E0,-4.785645287E-3,4.307080805E-2,9.784252167E0,9.784348137E0
2.750281838E0,4.785645287E-3,4.307080805E-2,9.803394318E0,9.803490100E0
2.752471913E0,0.000000000E0,5.742774159E-2,9.779465675E0,9.779634290E0
2.754667448E0,1.435693540E-2,4.785645381E-2,9.774680138E0,9.774807832E0
2.756864113E0,0.000000000E0,3.349951655E-2,9.789037704E0,9.789095024E0
2.759061898E0,4.785645287E-3,5.264209956E-2,9.798608780E0,9.798751355E0
2.761262572E0,0.000000000E0,4.785645381E-2,9.793823242E0,9.793940164E0
2.763475014E0,-4.785645287E-3,3.828516230E-2,9.798608780E0,9.798684742E0
2.765646635E0,0.000000000E0,4.307080805E-2,9.779465675E0,9.779560521E0
2.767842436E0,1.435693540E-2,4.307080805E-2,9.798608780E0,9.798713958E0
2.770033040E0,-9.571290575E-3,4.307080805E-2,9.779465675E0,9.779565205E0
2.772234760E0,-9.571290575E-3,3.828516230E-2,9.774680138E0,9.774759800E0
2.774431283E0,-4.785645287E-3,4.307080805E-2,9.789037704E0,9.789133627E0
2.776628681E0,-4.785645287E-3,4.307080805E-2,9.789037704E0,9.789133627E0
2.778817951E0,-4.785645287E-3,5.264209956E-2,9.793823242E0,9.793965887E0
2.780996438E0,9.571290575E-3,4.307080805E-2,9.798608780E0,9.798708115E0
2.783214120E0,4.785645287E-3,3.828516230E-2,9.803394318E0,9.803470243E0
2.785410094E0,0.000000000E0,2.871387079E-2,9.798608780E0,9.798650851E0
2.787611744E0,-1.435693540E-2,4.845465720E-2,9.808179855E0,9.808310051E0
2.789801746E0,0.000000000E0,3.828516230E-2,9.793823242E0,9.793898072E0
2.791998208E0,0.000000000E0,4.785645381E-2,9.774680138E0,9.774797289E0
2.794191172E0,-4.785645287E-3,5.742774159E-2,9.779465675E0,9.779635461E0
2.796376637E0,-4.785645287E-3,3.349951655E-2,9.779465675E0,9.779524222E0
2.798588490E0,-9.571290575E-3,5.264209956E-2,9.789037704E0,9.789183928E0
2.800761189E0,-1.914258115E-2,4.307080805E-2,9.789037704E0,9.789151174E0
2.802981912E0,4.785645287E-3,5.264209956E-2,9.793823242E0,9.793965887E0
2.805170845E0,9.571290575E-3,5.264209956E-2,9.779465675E0,9.779612042E0
2.807378619E0,0.000000000E0,5.264209956E-2,9.803394318E0,9.803535655E0
2.809583536E0,9.571290575E-3,3.828516230E-2,9.784252167E0,9.784331752E0
2.811762053E0,4.785645287E-3,3.828516230E-2,9.789037704E0,9.789113741E0
2.813952656E0,4.785645287E-3,5.264209956E-2,9.784252167E0,9.784394951E0
2.816125996E0,9.571290575E-3,4.785645381E-2,9.798608780E0,9.798730319E0
2.818348448E0,-4.785645287E-3,4.307080805E-2,9.779465675E0,9.779561692E0
2.820543883E0,0.000000000E0,4.307080805E-2,9.803394318E0,9.803488932E0
2.822745552E0,4.785645287E-3,3.828516230E-2,9.793823242E0,9.793899242E0
2.824936400E0,9.571290575E-3,3.828516230E-2,9.774680138E0,9.774759800E0
2.827132639E0,9.571290575E-3,3.828516230E-2,9.769894600E0,9.769974302E0
2.829326945E0,4.785645287E-3,3.828516230E-2,9.789037704E0,9.789113741E0
2.831510843E0,0.000000000E0,3.828516230E-2,9.789037704E0,9.789112571E0
2.833719970E0,-4.785645287E-3,3.888336942E-2,9.812965393E0,9.813043596E0
2.835910410E0,4.785645287E-3,3.828516230E-2,9.789037704E0,9.789113741E0
2.838095296E0,0.000000000E0,4.785645381E-2,9.803394318E0,9.803511125E0
2.840307158E0,0.000000000E0,3.349951655E-2,9.789037704E0,9.789095024E0
2.842502868E0,-9.571290575E-3,4.307080805E-2,9.798608780E0,9.798708115E0
2.844704111E0,9.571290575E-3,3.828516230E-2,9.793823242E0,9.793902749E0
2.846896423E0,-4.785645287E-3,3.349951655E-2,9.793823242E0,9.793881703E0
2.849091806E0,-9.571290575E-3,4.785645381E-2,9.798608780E0,9.798730319E0
2.851286773E0,1.435693540E-2,4.307080805E-2,9.798608780E0,9.798713958E0
2.853482360E0,0.000000000E0,5.264209956E-2,9.779465675E0,9.779607358E0
2.855678262E0,4.785645287E-3,4.307080805E-2,9.784252167E0,9.784348137E0
2.857874165E0,0.000000000E0,3.349951655E-2,9.784252167E0,9.784309515E0
2.860070251E0,4.785645287E-3,3.349951655E-2,9.779465675E0,9.779524222E0
2.862260223E0,4.785645287E-3,4.785645381E-2,9.798608780E0,9.798726813E0
2.864438070E0,-9.571290575E-3,4.785645381E-2,9.784252167E0,9.784373885E0
2.866659127E0,-4.785645287E-3,5.264209956E-2,9.779465675E0,9.779608529E0
2.868854084E0,-9.571290575E-3,4.785645381E-2,9.784252167E0,9.784373885E0
2.871055978E0,-9.571290575E-3,3.828516230E-2,9.798608780E0,9.798688248E0
2.873245361E0,-4.785645287E-3,4.785645381E-2,9.798608780E0,9.798726813E0
2.875435058E0,-4.785645287E-3,3.409772366E-2,9.803394318E0,9.803454784E0
2.877612630E0,0.000000000E0,4.307080805E-2,9.803394318E0,9.803488932E0
2.879833912E0,4.785645287E-3,2.392822690E-2,9.789037704E0,9.789068119E0
2.882030669E0,-9.571290575E-3,4.785645381E-2,9.798608780E0,9.798730319E0
2.884232045E0,0.000000000E0,4.307080805E-2,9.779465675E0,9.779560521E0
2.886421041E0,0.000000000E0,4.785645381E-2,9.784252167E0,9.784369203E0
2.888616922E0,4.785645287E-3,2.871387079E-2,9.784252167E0,9.784295470E0
2.890812509E0,0.000000000E0,4.785645381E-2,9.793823242E0,9.793940164E0
2.893008951E0,0.000000000E0,3.828516230E-2,9.779465675E0,9.779540615E0
2.895208160E0,4.785645287E-3,3.349951655E-2,9.779465675E0,9.779524222E0
2.897415659E0,4.785645287E-3,3.828516230E-2,9.803394318E0,9.803470243E0
2.899598500E0,-9.571290575E-3,4.307080805E-2,9.789037704E0,9.789137137E0
2.901793121E0,-9.571290575E-3,4.785645381E-2,9.793823242E0,9.793944841E0
2.903984415E0,-4.785645287E-3,4.785645381E-2,9.784252167E0,9.784370373E0
2.906183349E0,9.571290575E-3,4.785645381E-2,9.789037704E0,9.789159363E0
2.908373188E0,0.000000000E0,4.307080805E-2,9.789037704E0,9.789132458E0
2.910550322E0,0.000000000E0,4.307080805E-2,9.784252167E0,9.784346966E0
2.912771993E0,-9.571290575E-3,2.871387079E-2,9.798608780E0,9.798655526E0
2.914967153E0,1.435693540E-2,4.307080805E-2,9.779465675E0,9.779571060E0
2.917168588E0,-4.785645287E-3,4.307080805E-2,9.765109062E0,9.765205220E0
2.919360636E0,0.000000000E0,4.307080805E-2,9.769894600E0,9.769989539E0
2.921555216E0,4.785645287E-3,3.349951655E-2,9.798608780E0,9.798667213E0
2.923751424E0,-9.571290575E-3,4.785645381E-2,9.779465675E0,9.779587453E0
2.925946380E0,4.785645287E-3,4.785645381E-2,9.789037704E0,9.789155853E0
2.928136423E0,4.785645287E-3,5.324030295E-2,9.817750931E0,9.817896453E0
2.930312958E0,4.785645287E-3,4.785645381E-2,9.803394318E0,9.803512294E0
2.932534688E0,-9.571290575E-3,4.307080805E-2,9.798608780E0,9.798708115E0
2.934731852E0,0.000000000E0,4.785645381E-2,9.789037704E0,9.789154684E0
2.936934143E0,4.785645287E-3,4.785645381E-2,9.784252167E0,9.784370373E0
2.939122274E0,0.000000000E0,5.742774159E-2,9.808179855E0,9.808347976E0
2.941313782E0,9.571290575E-3,4.307080805E-2,9.789037704E0,9.789137137E0
2.943497425E0,-9.571290575E-3,4.307080805E-2,9.784252167E0,9.784351648E0
2.945709940E0,-1.435693540E-2,4.785645381E-2,9.765109062E0,9.765236882E0
2.947905731E0,0.000000000E0,3.349951655E-2,9.789037704E0,9.789095024E0
2.950106150E0,0.000000000E0,3.828516230E-2,9.789037704E0,9.789112571E0
2.952299265E0,9.571290575E-3,5.264209956E-2,9.793823242E0,9.793969394E0
2.954494507E0,4.785645287E-3,4.307080805E-2,9.798608780E0,9.798704609E0
2.956689494E0,0.000000000E0,4.785645381E-2,9.808179855E0,9.808296606E0
2.958885011E0,0.000000000E0,3.828516230E-2,9.779465675E0,9.779540615E0
2.961080525E0,0.000000000E0,4.307080805E-2,9.779465675E0,9.779560521E0
2.963276886E0,-9.571290575E-3,2.931207791E-2,9.808179855E0,9.808228325E0
2.965472962E0,4.785645287E-3,4.785645381E-2,9.784252167E0,9.784370373E0
2.967669627E0,-9.571290575E-3,5.264209956E-2,9.789037704E0,9.789183928E0
2.969867411E0,9.571290575E-3,3.349951655E-2,9.793823242E0,9.793885211E0
2.972055216E0,4.785645287E-3,3.828516230E-2,9.793823242E0,9.793899242E0
2.974224223E0,0.000000000E0,4.307080805E-2,9.784252167E0,9.784346966E0
2.976426055E0,-9.571290575E-3,4.785645381E-2,9.784252167E0,9.784373885E0
2.978647705E0,4.785645287E-3,4.845465720E-2,9.803394318E0,9.803515232E0
2.980850464E0,4.785645287E-3,4.785645381E-2,9.774680138E0,9.774798460E0
2.983041056E0,-4.785645287E-3,4.307080805E-2,9.779465675E0,9.779561692E0
2.985213765E0,-4.785645287E-3,3.349951655E-2,9.784252167E0,9.784310685E0
2.987433401E0,0.000000000E0,5.264209956E-2,9.769894600E0,9.770036422E0
2.989628459E0,0.000000000E0,3.828516230E-2,9.789037704E0,9.789112571E0
2.991829122E0,-4.785645287E-3,3.349951655E-2,9.789037704E0,9.789096194E0
2.994018961E0,0.000000000E0,4.307080805E-2,9.779465675E0,9.779560521E0
2.996208831E0,-9.571290575E-3,5.264209956E-2,9.784252167E0,9.784398462E0
2.998386444E0,4.785645287E-3,5.264209956E-2,9.798608780E0,9.798751355E0
3.000607117E0,-4.785645287E-3,5.264209956E-2,9.793823242E0,9.793965887E0
3.002803029E0,-4.785645287E-3,4.845465720E-2,9.803394318E0,9.803515232E0
3.005006236E0,4.785645287E-3,4.785645381E-2,9.789037704E0,9.789155853E0
3.007198457E0,1.435693540E-2,4.307080805E-2,9.793823242E0,9.793928472E0
3.009399578E0,0.000000000E0,4.307080805E-2,9.789037704E0,9.789132458E0
3.011586284E0,-9.571290575E-3,5.264209956E-2,9.789037704E0,9.789183928E0
3.013781861E0,-9.571290575E-3,5.264209956E-2,9.774680138E0,9.774826576E0
3.015976278E0,9.571290575E-3,2.871387079E-2,9.793823242E0,9.793870011E0
3.018174236E0,0.000000000E0,3.349951655E-2,9.784252167E0,9.784309515E0
3.020370748E0,-4.785645287E-3,3.888336942E-2,9.803394318E0,9.803472597E0
3.022567210E0,-9.571290575E-3,4.785645381E-2,9.789037704E0,9.789159363E0
3.024763113E0,1.435693540E-2,3.888336942E-2,9.803394318E0,9.803481942E0
3.026958029E0,0.000000000E0,4.785645381E-2,9.798608780E0,9.798725645E0
3.029147176E0,0.000000000E0,4.366901144E-2,9.803394318E0,9.803491578E0
3.031323822E0,-9.571290575E-3,4.366901144E-2,9.803394318E0,9.803496251E0
3.033545004E0,0.000000000E0,4.785645381E-2,9.789037704E0,9.789154684E0
3.035734518E0,-9.571290575E-3,4.307080805E-2,9.793823242E0,9.793922626E0
3.037918274E0,-9.571290575E-3,3.828516230E-2,9.789037704E0,9.789117250E0
3.040129172E0,-9.571290575E-3,4.785645381E-2,9.774680138E0,9.774801975E0
3.042304282E0,-4.785645287E-3,5.264209956E-2,9.798608780E0,9.798751355E0
3.044531749E0,0.000000000E0,2.871387079E-2,9.765109062E0,9.765151278E0
3.046713563E0,0.000000000E0,3.828516230E-2,9.789037704E0,9.789112571E0
3.048884828E0,0.000000000E0,3.349951655E-2,9.803394318E0,9.803451554E0
3.051093354E0,-9.571290575E-3,3.828516230E-2,9.793823242E0,9.793902749E0
3.053309153E0,-4.785645287E-3,4.307080805E-2,9.779465675E0,9.779561692E0
3.055504446E0,-4.785645287E-3,4.366901144E-2,9.812965393E0,9.813063726E0
3.057707470E0,4.785645287E-3,5.264209956E-2,9.789037704E0,9.789180419E0
3.059897259E0,4.785645287E-3,6.221338734E-2,9.789037704E0,9.789236568E0
3.062092489E0,4.785645287E-3,3.349951655E-2,9.784252167E0,9.784310685E0
3.064287120E0,0.000000000E0,4.307080805E-2,9.779465675E0,9.779560521E0
3.066479341E0,4.785645287E-3,4.785645381E-2,9.789037704E0,9.789155853E0
3.068663230E0,4.785645287E-3,4.785645381E-2,9.765109062E0,9.765227501E0
3.070875438E0,4.785645287E-3,4.307080805E-2,9.789037704E0,9.789133627E0
3.073072480E0,0.000000000E0,3.828516230E-2,9.789037704E0,9.789112571E0
3.075266125E0,-4.785645287E-3,4.307080805E-2,9.793823242E0,9.793919118E0
3.077439312E0,-9.571290575E-3,4.307080805E-2,9.789037704E0,9.789137137E0
3.079659383E0,0.000000000E0,4.307080805E-2,9.789037704E0,9.789132458E0
3.081853190E0,-4.785645287E-3,4.307080805E-2,9.784252167E0,9.784348137E0
3.084047090E0,-4.785645287E-3,3.828516230E-2,9.774680138E0,9.774756286E0
3.086246502E0,4.785645287E-3,4.785645381E-2,9.793823242E0,9.793941333E0
3.088442058E0,4.785645287E-3,4.785645381E-2,9.779465675E0,9.779583940E0
3.090641063E0,4.785645287E-3,3.828516230E-2,9.769894600E0,9.769970785E0
3.092835389E0,0.000000000E0,3.828516230E-2,9.798608780E0,9.798683574E0
3.095024395E0,0.000000000E0,4.307080805E-2,9.793823242E0,9.793917949E0
3.097199545E0,0.000000000E0,4.307080805E-2,9.798608780E0,9.798703441E0
3.099421571E0,4.785645287E-3,4.785645381E-2,9.793823242E0,9.793941333E0
3.101617575E0,0.000000000E0,4.307080805E-2,9.793823242E0,9.793917949E0
3.103820589E0,4.785645287E-3,3.828516230E-2,9.779465675E0,9.779541786E0
3.106009624E0,0.000000000E0,2.871387079E-2,9.784252167E0,9.784294300E0
3.108199667E0,-9.571290575E-3,4.307080805E-2,9.793823242E0,9.793922626E0
3.110378999E0,-9.571290575E-3,4.307080805E-2,9.793823242E0,9.793922626E0
3.112598797E0,9.571290575E-3,4.307080805E-2,9.774680138E0,9.774779716E0
3.114793743E0,-4.785645287E-3,4.307080805E-2,9.789037704E0,9.789133627E0
3.116997915E0,0.000000000E0,4.307080805E-2,9.789037704E0,9.789132458E0
3.119184277E0,9.571290575E-3,4.785645381E-2,9.779465675E0,9.779587453E0
3.121381003E0,4.785645287E-3,5.742774159E-2,9.789037704E0,9.789207324E0
3.123575817E0,-9.571290575E-3,3.349951655E-2,9.765109062E0,9.765171213E0
3.125772656E0,-4.785645287E-3,3.828516230E-2,9.789037704E0,9.789113741E0
3.127964642E0,-9.571290575E-3,2.931207791E-2,9.793823242E0,9.793871783E0
3.130145102E0,0.000000000E0,3.828516230E-2,9.760323524E0,9.760398612E0
3.132360169E0,-4.785645287E-3,3.888336942E-2,9.812965393E0,9.813043596E0
3.134555899E0,0.000000000E0,6.221338734E-2,9.784252167E0,9.784449957E0
3.136756787E0,-4.785645287E-3,4.785645381E-2,9.784252167E0,9.784370373E0
3.138947694E0,1.435693540E-2,2.871387079E-2,9.789037704E0,9.789090345E0
3.141137930E0,4.785645287E-3,4.785645381E-2,9.774680138E0,9.774798460E0
3.143317344E0,4.785645287E-3,4.307080805E-2,9.789037704E0,9.789133627E0
3.145530672E0,0.000000000E0,5.264209956E-2,9.798608780E0,9.798750186E0
3.147707113E0,0.000000000E0,3.828516230E-2,9.789037704E0,9.789112571E0
3.149933249E0,-4.785645287E-3,4.307080805E-2,9.793823242E0,9.793919118E0
3.152122662E0,-1.435693540E-2,4.785645381E-2,9.793823242E0,9.793950687E0
3.154325004E0,0.000000000E0,4.785645381E-2,9.784252167E0,9.784369203E0
3.156514731E0,4.785645287E-3,4.785645381E-2,9.769894600E0,9.770012980E0
3.158710705E0,-4.785645287E-3,2.871387079E-2,9.769894600E0,9.769937967E0
3.160906791E0,0.000000000E0,3.828516230E-2,9.789037704E0,9.789112571E0
3.163097994E0,-4.785645287E-3,3.828516230E-2,9.779465675E0,9.779541786E0
3.165275046E0,9.571290575E-3,4.307080805E-2,9.769894600E0,9.769994227E0
3.167494427E0,4.785645287E-3,4.307080805E-2,9.798608780E0,9.798704609E0
3.169689790E0,9.571290575E-3,4.307080805E-2,9.793823242E0,9.793922626E0
3.171891705E0,0.000000000E0,4.366901144E-2,9.817750931E0,9.817848049E0
3.174086407E0,-4.785645287E-3,4.785645381E-2,9.789037704E0,9.789155853E0
3.176295137E0,4.785645287E-3,3.828516230E-2,9.789037704E0,9.789113741E0
3.178474367E0,4.785645287E-3,4.785645381E-2,9.779465675E0,9.779583940E0
3.180671917E0,4.785645287E-3,6.221338734E-2,9.789037704E0,9.789236568E0
3.182867403E0,-4.785645287E-3,4.366901144E-2,9.808179855E0,9.808278236E0
3.185081636E0,0.000000000E0,4.785645381E-2,9.774680138E0,9.774797289E0
3.187256767E0,-4.785645287E-3,4.785645381E-2,9.793823242E0,9.793941333E0
3.189452984E0,0.000000000E0,3.828516230E-2,9.784252167E0,9.784327070E0
3.191643811E0,-4.785645287E-3,3.888336942E-2,9.798608780E0,9.798687098E0
3.193845125E0,9.571290575E-3,4.307080805E-2,9.789037704E0,9.789137137E0
3.196034894E0,-4.785645287E-3,5.324030295E-2,9.808179855E0,9.808325520E0
3.198213005E0,-9.571290575E-3,4.366901144E-2,9.798608780E0,9.798710763E0
3.200433463E0,4.785645287E-3,3.828516230E-2,9.793823242E0,9.793899242E0
3.202628460E0,0.000000000E0,4.845465720E-2,9.803394318E0,9.803514064E0
3.204830487E0,0.000000000E0,3.888336942E-2,9.803394318E0,9.803471429E0
3.207014345E0,-4.785645287E-3,3.349951655E-2,9.769894600E0,9.769953204E0
3.209193544E0,0.000000000E0,3.888336942E-2,9.803394318E0,9.803471429E0
3.211411847E0,-4.785645287E-3,4.307080805E-2,9.774680138E0,9.774776202E0
3.213608085E0,0.000000000E0,5.264209956E-2,9.779465675E0,9.779607358E0
3.215811404E0,0.000000000E0,3.828516230E-2,9.774680138E0,9.774755114E0
3.218000887E0,-1.435693540E-2,4.785645381E-2,9.774680138E0,9.774807832E0
3.220195599E0,-4.785645287E-3,5.324030295E-2,9.803394318E0,9.803540053E0
3.222391391E0,0.000000000E0,4.307080805E-2,9.793823242E0,9.793917949E0
3.224587374E0,-1.435693540E-2,4.845465720E-2,9.793823242E0,9.793953628E0
3.226783226E0,0.000000000E0,3.888336942E-2,9.798608780E0,9.798685929E0
3.228972740E0,-4.785645287E-3,5.264209956E-2,9.784252167E0,9.784394951E0
3.231149895E0,9.571290575E-3,3.828516230E-2,9.784252167E0,9.784331752E0
3.233372407E0,-4.785645287E-3,3.828516230E-2,9.774680138E0,9.774756286E0
3.235562502E0,-9.571290575E-3,4.785645381E-2,9.784252167E0,9.784373885E0
3.237743370E0,4.785645287E-3,3.828516230E-2,9.779465675E0,9.779541786E0
3.239958580E0,-4.785645287E-3,4.307080805E-2,9.793823242E0,9.793919118E0
3.242147381E0,0.000000000E0,4.307080805E-2,9.784252167E0,9.784346966E0
3.244331362E0,9.571290575E-3,4.307080805E-2,9.774680138E0,9.774779716E0
3.246546644E0,9.571290575E-3,4.307080805E-2,9.784252167E0,9.784351648E0
3.248746463E0,-4.785645287E-3,3.828516230E-2,9.793823242E0,9.793899242E0
3.250961122E0,9.571290575E-3,5.264209956E-2,9.784252167E0,9.784398462E0
3.253134758E0,9.571290575E-3,4.785645381E-2,9.784252167E0,9.784373885E0
3.255329175E0,4.785645287E-3,4.785645381E-2,9.798608780E0,9.798726813E0
3.257521528E0,-4.785645287E-3,4.785645381E-2,9.784252167E0,9.784370373E0
3.259721142E0,4.785645287E-3,3.828516230E-2,9.779465675E0,9.779541786E0
3.261920870E0,1.435693540E-2,5.264209956E-2,9.793823242E0,9.793975240E0
3.264126722E0,1.435693540E-2,3.828516230E-2,9.789037704E0,9.789123099E0
3.266309787E0,-4.785645287E-3,3.888336942E-2,9.803394318E0,9.803472597E0
3.268506727E0,4.785645287E-3,4.307080805E-2,9.793823242E0,9.793919118E0
3.270699150E0,0.000000000E0,4.307080805E-2,9.789037704E0,9.789132458E0
3.272896832E0,0.000000000E0,3.828516230E-2,9.798608780E0,9.798683574E0
3.275086123E0,9.571290575E-3,4.785645381E-2,9.793823242E0,9.793944841E0
3.277263583E0,0.000000000E0,4.785645381E-2,9.793823242E0,9.793940164E0
3.279484591E0,-4.785645287E-3,4.785645381E-2,9.798608780E0,9.798726813E0
3.281675011E0,-4.785645287E-3,3.828516230E-2,9.793823242E0,9.793899242E0
3.283859815E0,-4.785645287E-3,4.307080805E-2,9.793823242E0,9.793919118E0
3.286073509E0,-4.785645287E-3,5.264209956E-2,9.784252167E0,9.784394951E0
3.288269198E0,0.000000000E0,4.307080805E-2,9.789037704E0,9.789132458E0
3.290469435E0,1.914258115E-2,4.785645381E-2,9.798608780E0,9.798744343E0
3.292659397E0,-4.785645287E-3,3.828516230E-2,9.798608780E0,9.798684742E0
3.294850131E0,0.000000000E0,4.785645381E-2,9.784252167E0,9.784369203E0
3.297031477E0,0.000000000E0,4.307080805E-2,9.784252167E0,9.784346966E0
3.299247704E0,4.785645287E-3,3.828516230E-2,9.789037704E0,9.789113741E0
3.301443505E0,1.435693540E-2,2.871387079E-2,9.789037704E0,9.789090345E0
3.303645724E0,0.000000000E0,4.785645381E-2,9.798608780E0,9.798725645E0
3.305836531E0,4.785645287E-3,5.264209956E-2,9.793823242E0,9.793965887E0
3.308030216E0,4.785645287E-3,2.871387079E-2,9.779465675E0,9.779509000E0
3.310223777E0,4.785645287E-3,3.828516230E-2,9.760323524E0,9.760399785E0
3.312422223E0,-4.785645287E-3,2.871387079E-2,9.774680138E0,9.774723484E0
3.314612124E0,4.785645287E-3,4.307080805E-2,9.784252167E0,9.784348137E0
3.316789737E0,-4.785645287E-3,4.307080805E-2,9.774680138E0,9.774776202E0
3.319004936E0,-1.435693540E-2,4.785645381E-2,9.789037704E0,9.789165212E0
3.321183637E0,9.571290575E-3,5.264209956E-2,9.789037704E0,9.789183928E0
3.323409692E0,0.000000000E0,4.307080805E-2,9.784252167E0,9.784346966E0
3.325597802E0,-4.785645287E-3,4.307080805E-2,9.784252167E0,9.784348137E0
3.327801241E0,0.000000000E0,3.349951655E-2,9.793823242E0,9.793880534E0
3.329998162E0,1.435693540E-2,4.785645381E-2,9.798608780E0,9.798736163E0
3.332196099E0,9.571290575E-3,4.785645381E-2,9.779465675E0,9.779587453E0
3.334381778E0,-4.785645287E-3,4.307080805E-2,9.784252167E0,9.784348137E0
3.336576266E0,9.571290575E-3,4.785645381E-2,9.779465675E0,9.779587453E0
3.338772372E0,0.000000000E0,4.307080805E-2,9.779465675E0,9.779560521E0
3.340966505E0,-4.785645287E-3,3.828516230E-2,9.789037704E0,9.789113741E0
3.343149061E0,4.785645287E-3,3.828516230E-2,9.774680138E0,9.774756286E0
3.345360801E0,9.571290575E-3,6.221338734E-2,9.789037704E0,9.789240077E0
3.347556776E0,4.785645287E-3,4.785645381E-2,9.789037704E0,9.789155853E0
3.349757094E0,4.785645287E-3,4.785645381E-2,9.784252167E0,9.784370373E0
3.351952813E0,-4.785645287E-3,4.785645381E-2,9.784252167E0,9.784370373E0
3.354152743E0,-4.785645287E-3,3.349951655E-2,9.798608780E0,9.798667213E0
3.356352674E0,-4.785645287E-3,4.366901144E-2,9.803394318E0,9.803492747E0
3.358552605E0,0.000000000E0,4.785645381E-2,9.769894600E0,9.770011808E0
3.360732487E0,-4.785645287E-3,4.785645381E-2,9.774680138E0,9.774798460E0
3.362921797E0,0.000000000E0,4.307080805E-2,9.798608780E0,9.798703441E0
3.365098340E0,-4.785645287E-3,4.366901144E-2,9.812965393E0,9.813063726E0
3.367320488E0,4.785645287E-3,4.307080805E-2,9.784252167E0,9.784348137E0
3.369509678E0,0.000000000E0,4.366901144E-2,9.803394318E0,9.803491578E0
3.371692813E0,-1.435693540E-2,4.785645381E-2,9.793823242E0,9.793950687E0
3.373902378E0,0.000000000E0,4.307080805E-2,9.793823242E0,9.793917949E0
3.376078881E0,-9.571290575E-3,4.785645381E-2,9.784252167E0,9.784373885E0
3.378305851E0,9.571290575E-3,5.742774159E-2,9.789037704E0,9.789210833E0
3.380495111E0,0.000000000E0,4.785645381E-2,9.798608780E0,9.798725645E0
3.382700362E0,-4.785645287E-3,3.349951655E-2,9.784252167E0,9.784310685E0
3.384898482E0,1.435693540E-2,3.349951655E-2,9.784252167E0,9.784320048E0
3.387082961E0,9.571290575E-3,4.307080805E-2,9.798608780E0,9.798708115E0
3.389279076E0,0.000000000E0,3.828516230E-2,9.774680138E0,9.774755114E0
3.391473839E0,0.000000000E0,3.828516230E-2,9.789037704E0,9.789112571E0
3.393671492E0,4.785645287E-3,3.888336942E-2,9.798608780E0,9.798687098E0
3.395860741E0,-1.435693540E-2,4.307080805E-2,9.774680138E0,9.774785574E0
3.398038211E0,-4.785645287E-3,4.845465720E-2,9.798608780E0,9.798729753E0
3.400258345E0,0.000000000E0,5.324030295E-2,9.812965393E0,9.813109820E0
3.402447686E0,-9.571290575E-3,5.742774159E-2,9.769894600E0,9.770068068E0
3.404630588E0,0.000000000E0,4.785645381E-2,9.784252167E0,9.784369203E0
3.406845991E0,-4.785645287E-3,4.845465720E-2,9.798608780E0,9.798729753E0
3.409037540E0,-4.785645287E-3,5.742774159E-2,9.784252167E0,9.784421869E0
3.411219629E0,-1.435693540E-2,5.802594870E-2,9.793225288E0,9.793407715E0
3.413433699E0,4.785645287E-3,3.828516230E-2,9.784252167E0,9.784328241E0
3.415629021E0,0.000000000E0,3.888336942E-2,9.798608780E0,9.798685929E0
3.417831007E0,0.000000000E0,4.307080805E-2,9.774680138E0,9.774775030E0
3.420021366E0,-1.435693540E-2,4.785645381E-2,9.774680138E0,9.774807832E0
3.422216922E0,-4.785645287E-3,5.324030295E-2,9.803394318E0,9.803540053E0
3.424413181E0,4.785645287E-3,3.828516230E-2,9.779465675E0,9.779541786E0
3.426610081E0,9.571290575E-3,4.785645381E-2,9.793823242E0,9.793944841E0
3.428803125E0,1.435693540E-2,3.349951655E-2,9.784252167E0,9.784320048E0
3.430988417E0,-4.785645287E-3,3.349951655E-2,9.784252167E0,9.784310685E0
3.433196018E0,0.000000000E0,3.349951655E-2,9.784252167E0,9.784309515E0
3.435391819E0,0.000000000E0,4.307080805E-2,9.769894600E0,9.769989539E0
3.437591059E0,0.000000000E0,5.264209956E-2,9.765109062E0,9.765250954E0
3.439784427E0,-4.785645287E-3,4.845465720E-2,9.798608780E0,9.798729753E0
3.441974186E0,9.571290575E-3,5.264209956E-2,9.779465675E0,9.779612042E0
3.444152308E0,4.785645287E-3,4.366901144E-2,9.798608780E0,9.798707257E0
3.446373499E0,-4.785645287E-3,4.307080805E-2,9.784252167E0,9.784348137E0
3.448566288E0,-4.785645287E-3,4.307080805E-2,9.784252167E0,9.784348137E0
3.450763258E0,-4.785645287E-3,3.828516230E-2,9.779465675E0,9.779541786E0
3.452958958E0,-4.785645287E-3,4.307080805E-2,9.789037704E0,9.789133627E0
3.455155075E0,9.571290575E-3,4.785645381E-2,9.769894600E0,9.770016497E0
3.457352685E0,4.785645287E-3,5.264209956E-2,9.793823242E0,9.793965887E0
3.459547448E0,0.000000000E0,5.264209956E-2,9.769894600E0,9.770036422E0
3.461739597E0,4.785645287E-3,3.828516230E-2,9.774680138E0,9.774756286E0
3.463916691E0,1.435693540E-2,4.307080805E-2,9.784252167E0,9.784357500E0
3.466135004E0,-4.785645287E-3,5.264209956E-2,9.784252167E0,9.784394951E0
3.468330031E0,-1.435693540E-2,3.888336942E-2,9.798608780E0,9.798696447E0
3.470531864E0,-4.785645287E-3,4.845465720E-2,9.803394318E0,9.803515232E0
3.472722081E0,9.571290575E-3,4.307080805E-2,9.798608780E0,9.798708115E0
3.474911818E0,0.000000000E0,4.785645381E-2,9.784252167E0,9.784369203E0
3.477089014E0,0.000000000E0,4.845465720E-2,9.808179855E0,9.808299543E0
3.479311366E0,-4.785645287E-3,5.264209956E-2,9.784252167E0,9.784394951E0
3.481508407E0,1.914258115E-2,4.785645381E-2,9.784252167E0,9.784387929E0
3.483712946E0,9.571290575E-3,5.742774159E-2,9.803394318E0,9.803567193E0
3.485897679E0,4.785645287E-3,4.307080805E-2,9.789037704E0,9.789133627E0
3.488093347E0,-4.785645287E-3,3.828516230E-2,9.793823242E0,9.793899242E0
3.490288476E0,4.785645287E-3,4.785645381E-2,9.774680138E0,9.774798460E0
3.492479160E0,-9.571290575E-3,4.366901144E-2,9.798608780E0,9.798710763E0
3.494658685E0,-9.571290575E-3,3.349951655E-2,9.774680138E0,9.774742228E0
3.496887313E0,4.785645287E-3,4.307080805E-2,9.784252167E0,9.784348137E0
3.499073999E0,-9.571290575E-3,4.785645381E-2,9.789037704E0,9.789159363E0
3.501274907E0,-1.435693540E-2,5.264209956E-2,9.793823242E0,9.793975240E0
3.503462397E0,-4.785645287E-3,4.307080805E-2,9.779465675E0,9.779561692E0
3.505660608E0,-4.785645287E-3,4.785645381E-2,9.789037704E0,9.789155853E0
3.507850305E0,0.000000000E0,4.307080805E-2,9.784252167E0,9.784346966E0
3.510026534E0,9.571290575E-3,5.264209956E-2,9.784252167E0,9.784398462E0
3.512248062E0,4.785645287E-3,5.264209956E-2,9.789037704E0,9.789180419E0
3.514445043E0,4.785645287E-3,3.349951655E-2,9.784252167E0,9.784310685E0
3.516647140E0,-4.785645287E-3,4.785645381E-2,9.789037704E0,9.789155853E0
3.518836440E0,-4.785645287E-3,3.828516230E-2,9.779465675E0,9.779541786E0
3.521032058E0,-1.435693540E-2,4.785645381E-2,9.793823242E0,9.793950687E0
3.523227910E0,0.000000000E0,4.307080805E-2,9.798608780E0,9.798703441E0
3.525423863E0,0.000000000E0,3.349951655E-2,9.793823242E0,9.793880534E0
3.527619695E0,4.785645287E-3,4.307080805E-2,9.793823242E0,9.793919118E0
3.529809555E0,-9.571290575E-3,3.828516230E-2,9.798608780E0,9.798688248E0
3.531988591E0,-9.571290575E-3,3.828516230E-2,9.793823242E0,9.793902749E0
3.534208164E0,-9.571290575E-3,3.349951655E-2,9.774680138E0,9.774742228E0
3.536402695E0,0.000000000E0,4.307080805E-2,9.789037704E0,9.789132458E0
3.538604793E0,0.000000000E0,3.828516230E-2,9.789037704E0,9.789112571E0
3.540789292E0,0.000000000E0,3.828516230E-2,9.774680138E0,9.774755114E0
3.542967960E0,-1.435693540E-2,5.324030295E-2,9.808179855E0,9.808334860E0
3.545183252E0,-4.785645287E-3,4.845465720E-2,9.803394318E0,9.803515232E0
3.547382674E0,-4.785645287E-3,3.349951655E-2,9.789037704E0,9.789096194E0
3.549578586E0,4.785645287E-3,4.845465720E-2,9.812965393E0,9.813086189E0
3.551756138E0,4.785645287E-3,4.307080805E-2,9.779465675E0,9.779561692E0
3.553983047E0,0.000000000E0,4.845465720E-2,9.808179855E0,9.808299543E0
3.556172928E0,1.435693540E-2,5.264209956E-2,9.793823242E0,9.793975240E0
3.558368048E0,-9.571290575E-3,4.785645381E-2,9.784252167E0,9.784373885E0
3.560557937E0,-9.571290575E-3,5.264209956E-2,9.793823242E0,9.793969394E0
3.562749598E0,4.785645287E-3,5.742774159E-2,9.793823242E0,9.793992779E0
3.564932561E0,0.000000000E0,4.785645381E-2,9.789037704E0,9.789154684E0
3.567147374E0,0.000000000E0,4.785645381E-2,9.784252167E0,9.784369203E0
3.569336206E0,-9.571290575E-3,5.264209956E-2,9.774680138E0,9.774826576E0
3.571518143E0,4.785645287E-3,3.828516230E-2,9.789037704E0,9.789113741E0
3.573731980E0,4.785645287E-3,4.785645381E-2,9.793823242E0,9.793941333E0
3.575916671E0,4.785645287E-3,4.785645381E-2,9.789037704E0,9.789155853E0
3.578110336E0,9.571290575E-3,5.742774159E-2,9.789037704E0,9.789210833E0
3.580321253E0,4.785645287E-3,3.349951655E-2,9.784252167E0,9.784310685E0
3.582519740E0,-4.785645287E-3,3.349951655E-2,9.784252167E0,9.784310685E0
3.584719070E0,-1.435693540E-2,4.845465720E-2,9.812965393E0,9.813095525E0
3.586909653E0,-4.785645287E-3,3.828516230E-2,9.789037704E0,9.789113741E0
3.589103948E0,-9.571290575E-3,6.221338734E-2,9.798608780E0,9.798810955E0
3.591299800E0,0.000000000E0,4.307080805E-2,9.779465675E0,9.779560521E0
3.593495702E0,4.785645287E-3,3.349951655E-2,9.793823242E0,9.793881703E0
3.595686264E0,-4.785645287E-3,4.845465720E-2,9.803394318E0,9.803515232E0
3.597863805E0,-9.571290575E-3,3.828516230E-2,9.789037704E0,9.789117250E0
3.600084162E0,-4.785645287E-3,4.785645381E-2,9.789037704E0,9.789155853E0
3.602281499E0,4.785645287E-3,3.828516230E-2,9.803394318E0,9.803470243E0
3.604480972E0,-4.785645287E-3,3.349951655E-2,9.789037704E0,9.789096194E0
3.606671229E0,0.000000000E0,4.307080805E-2,9.769894600E0,9.769989539E0
3.608860408E0,-4.785645287E-3,4.307080805E-2,9.784252167E0,9.784348137E0
3.611037684E0,-9.571290575E-3,4.785645381E-2,9.793823242E0,9.793944841E0
3.613259394E0,-4.785645287E-3,5.264209956E-2,9.779465675E0,9.779608529E0
3.615456101E0,4.785645287E-3,4.307080805E-2,9.784252167E0,9.784348137E0
3.617663214E0,4.785645287E-3,4.785645381E-2,9.793823242E0,9.793941333E0
3.619848262E0,0.000000000E0,4.785645381E-2,9.803394318E0,9.803511125E0
3.622043849E0,9.571290575E-3,4.307080805E-2,9.779465675E0,9.779565205E0
3.624237269E0,0.000000000E0,3.828516230E-2,9.789037704E0,9.789112571E0
3.626433956E0,-9.571290575E-3,3.828516230E-2,9.789037704E0,9.789117250E0
3.628635198E0,0.000000000E0,4.307080805E-2,9.789037704E0,9.789132458E0
3.630847489E0,0.000000000E0,4.785645381E-2,9.789037704E0,9.789154684E0
3.633021979E0,-4.785645287E-3,3.349951655E-2,9.774680138E0,9.774738713E0
3.635218522E0,4.785645287E-3,3.349951655E-2,9.789037704E0,9.789096194E0
3.637409876E0,0.000000000E0,5.264209956E-2,9.765109062E0,9.765250954E0
3.639611151E0,4.785645287E-3,3.349951655E-2,9.779465675E0,9.779524222E0
3.641799190E0,0.000000000E0,4.307080805E-2,9.784252167E0,9.784346966E0
3.643976111E0,1.435693540E-2,4.785645381E-2,9.798608780E0,9.798736163E0
3.646197138E0,4.785645287E-3,3.349951655E-2,9.789037704E0,9.789096194E0
3.648393438E0,-4.785645287E-3,4.785645381E-2,9.798608780E0,9.798726813E0
3.650594976E0,1.435693540E-2,3.828516230E-2,9.774680138E0,9.774765658E0
3.652784887E0,4.785645287E-3,4.785645381E-2,9.784252167E0,9.784370373E0
3.654982000E0,4.785645287E-3,4.785645381E-2,9.769894600E0,9.770012980E0
3.657177709E0,4.785645287E-3,5.742774159E-2,9.789037704E0,9.789207324E0
3.659372646E0,0.000000000E0,3.349951655E-2,9.765109062E0,9.765166523E0
3.661562597E0,4.785645287E-3,4.785645381E-2,9.803394318E0,9.803512294E0
3.663734961E0,-9.571290575E-3,4.307080805E-2,9.779465675E0,9.779565205E0
3.665935074E0,-4.785645287E-3,2.392822690E-2,9.784252167E0,9.784282596E0
3.668156835E0,0.000000000E0,4.307080805E-2,9.779465675E0,9.779560521E0
3.670358414E0,-1.435693540E-2,4.785645381E-2,9.793823242E0,9.793950687E0
3.672556707E0,-4.785645287E-3,4.366901144E-2,9.808179855E0,9.808278236E0
