"Time (s)","Acceleration x (m/s^2)","Acceleration y (m/s^2)","Acceleration z (m/s^2)","Absolute acceleration (m/s^2)"
1.404845600E-2,2.769692242E-1,3.450450182E0,7.194619656E0,7.984038477E0
1.630091400E-2,3.583251834E-1,3.421138287E0,7.104290485E0,7.893258352E0
1.849388500E-2,4.348955154E-1,3.405584812E0,6.951747894E0,7.753318052E0
2.068689800E-2,5.114658475E-1,3.400201082E0,6.842276573E0,7.657657175E0
2.287755200E-2,6.119644046E-1,3.390031576E0,6.723831654E0,7.554914071E0
2.507347500E-2,6.789634228E-1,3.384647608E0,6.637690067E0,7.481695008E0
2.726947900E-2,7.698906660E-1,3.412763357E0,6.580860615E0,7.453013605E0
2.946187100E-2,8.416753411E-1,3.450450182E0,6.552744865E0,7.453354219E0
3.164584100E-2,8.847461939E-1,3.498306751E0,6.562315941E0,7.488986344E0
3.385857000E-2,8.991031051E-1,3.546163082E0,6.571887493E0,7.521526721E0
3.605597800E-2,9.086744189E-1,3.555734396E0,6.591030121E0,7.543912403E0
3.825467700E-2,9.469595551E-1,3.580260992E0,6.619743824E0,7.585249466E0
4.044698900E-2,9.894321561E-1,3.555734396E0,6.615556240E0,7.575474074E0
4.263624900E-2,1.037288666E0,3.512663603E0,6.597012043E0,7.545551090E0
4.481356700E-2,1.056431174E0,3.412165165E0,6.621538639E0,7.523542509E0
4.703534800E-2,1.080359459E0,3.321237803E0,6.607779503E0,7.473991374E0
4.922837100E-2,1.075573802E0,3.259024382E0,6.598208427E0,7.437368713E0
5.141873000E-2,1.074975610E0,3.220739365E0,6.560521603E0,7.387095391E0
5.362440800E-2,1.108475089E0,3.206382275E0,6.536593437E0,7.364554167E0
5.581944700E-2,1.199402332E0,3.205784082E0,6.508477688E0,7.353631712E0
5.801995700E-2,1.333400369E0,3.205784082E0,6.490531445E0,7.360842789E0
6.021203500E-2,1.467398524E0,3.224328518E0,6.501298904E0,7.403812549E0
6.240809900E-2,1.639083505E0,3.229114056E0,6.550352097E0,7.484710075E0
6.460416400E-2,1.816152334E0,3.224328518E0,6.623332977E0,7.587044446E0
6.680153200E-2,2.002194405E0,3.201596737E0,6.849454880E0,7.821383270E0
6.899726300E-2,2.201995134E0,3.169293642E0,7.181458950E0,8.152702461E0
7.119579900E-2,2.407179594E0,3.108276606E0,7.513463020E0,8.479859882E0
7.339457000E-2,2.626721144E0,3.052643538E0,7.855038643E0,8.827226553E0
7.560628100E-2,2.927020311E0,2.957528830E0,8.087141991E0,9.094849656E0
7.778265200E-2,3.232703447E0,2.846860647E0,8.137989998E0,9.207707007E0
8.000255100E-2,3.524029493E0,2.693121910E0,8.088338852E0,9.224582098E0
8.216160900E-2,3.796213150E0,2.529811859E0,7.975875854E0,9.188350122E0
8.434622000E-2,4.030709743E0,2.341975212E0,7.811369419E0,9.096645598E0
8.655998500E-2,4.207180500E0,2.158924341E0,7.660023689E0,9.002071150E0
8.876302900E-2,4.336392879E0,1.985444546E0,7.479963779E0,8.871085130E0
9.096472000E-2,4.398606300E0,1.860419631E0,7.313662529E0,8.734904589E0
9.315429600E-2,4.360321045E0,1.812563181E0,7.275377274E0,8.673459481E0
9.534359600E-2,4.288536549E0,1.831705689E0,7.231708050E0,8.604899347E0
9.751413800E-2,4.255036831E0,1.864607096E0,7.149754047E0,8.526492889E0
9.971752700E-2,4.278964996E0,1.902294040E0,7.044469833E0,8.458889956E0
1.019399590E-1,4.284348965E0,1.939980984E0,6.900900364E0,8.351143521E0
1.041419360E-1,4.322634220E0,1.971685886E0,6.681358814E0,8.198369804E0
1.063389680E-1,4.304089546E0,1.951346874E0,6.422934055E0,7.974147185E0
1.085210860E-1,4.203591347E0,1.950150490E0,6.153741837E0,7.703363274E0
1.106982190E-1,3.945764542E0,1.901097536E0,5.841478348E0,7.301102584E0
1.129190660E-1,3.540181160E0,1.795215130E0,5.513063431E0,6.793345891E0
1.151157830E-1,3.062214851E0,1.679761529E0,5.189434052E0,6.255316488E0
1.173188560E-1,2.522633314E0,1.563709617E0,4.822135925E0,5.662319444E0
1.195092750E-1,1.978266120E0,1.434497118E0,4.517050743E0,5.135666095E0
1.217043750E-1,1.485942841E0,1.304686546E0,4.260420799E0,4.696958430E0
1.239014060E-1,1.127617717E0,1.203589797E0,4.013959885E0,4.339588007E0
1.260965350E-1,9.272187948E-1,1.092921734E0,3.788436413E0,4.050489238E0
1.282927120E-1,8.554341197E-1,1.006181955E0,3.625724554E0,3.858762522E0
1.304837940E-1,9.176474810E-1,9.002995491E-1,3.511467218E0,3.739387410E0
1.326668590E-1,1.084546804E0,7.848458290E-1,3.398406267E0,3.652586741E0
1.348822720E-1,1.299900889E0,6.741777658E-1,3.343371391E0,3.649984965E0
1.370785610E-1,1.538584948E0,5.629115105E-1,3.230310678E0,3.622018786E0
1.392783800E-1,1.805982947E0,5.042873621E-1,3.151347399E0,3.666997488E0
1.414696950E-1,2.083550215E0,4.701896608E-1,3.053241730E0,3.726197106E0
1.436582720E-1,2.346162558E0,4.683950245E-1,2.859423161E0,3.728293639E0
1.458619880E-1,2.614158630E0,4.815555513E-1,2.727219582E0,3.808339236E0
1.480576770E-1,2.853441000E0,5.234299302E-1,2.575873613E0,3.879591384E0
1.502560510E-1,3.068794966E0,5.605186820E-1,2.467000246E0,3.977156515E0
1.524509050E-1,3.240479946E0,5.838487148E-1,2.358126640E0,4.049981587E0
1.546477850E-1,3.412763357E0,6.550351977E-1,2.277967215E0,4.155136517E0
1.568428730E-1,3.570689678E0,7.214360237E-1,2.226521492E0,4.269390199E0
1.590399660E-1,3.733401537E0,7.734799385E-1,2.184048891E0,4.393930793E0
1.612349120E-1,3.891327858E0,8.494520187E-1,2.166102648E0,4.533872728E0
1.634251390E-1,4.063611031E0,9.302098155E-1,2.099701881E0,4.667651754E0
1.656016730E-1,4.259822369E0,1.054038405E0,2.091326952E0,4.861145132E0
1.678234950E-1,4.479363918E0,1.158724308E0,2.068595171E0,5.068178086E0
1.700135380E-1,4.694717884E0,1.215553880E0,2.074577332E0,5.274639168E0
1.721975490E-1,4.881358147E0,1.287338614E0,2.114058733E0,5.473037766E0
1.744121990E-1,5.009972572E0,1.335195065E0,2.163111687E0,5.617973229E0
1.766036050E-1,5.105685234E0,1.368694544E0,2.234896421E0,5.738998909E0
1.787873210E-1,5.163113117E0,1.387837172E0,2.321636200E0,5.828706865E0
1.810002430E-1,5.210969448E0,1.402194023E0,2.341377020E0,5.882380217E0
1.831961650E-1,5.230112076E0,1.402792215E0,2.350948334E0,5.903291996E0
1.853980080E-1,5.258825779E0,1.363908887E0,2.298306227E0,5.898958174E0
1.875888860E-1,5.277968407E0,1.315454245E0,2.236690998E0,5.881339728E0
1.897859890E-1,5.315655708E0,1.238883972E0,2.132004976E0,5.859733298E0
1.919821960E-1,5.353940487E0,1.171286702E0,2.041675806E0,5.848506764E0
1.941783440E-1,5.377869129E0,1.060618639E0,1.908276081E0,5.804128347E0
1.963762910E-1,5.401797295E0,9.355936646E-1,1.779661894E0,5.763848191E0
1.985806770E-1,5.411368370E0,7.956135273E-1,1.637288928E0,5.709345283E0
2.007652870E-1,5.406582832E0,6.275177598E-1,1.489532113E0,5.643015362E0
2.029552900E-1,5.401797295E0,4.408775866E-1,1.365703583E0,5.589180023E0
2.051298100E-1,5.396413326E0,2.632105052E-1,1.270588875E0,5.550220955E0
2.073552120E-1,5.420341492E0,8.554340899E-2,1.161715388E0,5.544096158E0
2.095442590E-1,5.453841209E0,-9.690931439E-2,1.062413216E0,5.557202281E0
2.117296740E-1,5.505885124E0,-2.650051117E-1,9.296116233E-1,5.590096285E0
2.139427880E-1,5.553741455E0,-4.618147612E-1,8.159525394E-1,5.632325947E0
2.161363920E-1,5.611168861E0,-6.245267391E-1,7.112665176E-1,5.690443717E0
2.183309310E-1,5.658427238E0,-7.830511928E-1,6.071787477E-1,5.744530792E0
2.205312290E-1,5.715855122E0,-9.224331379E-1,4.935196638E-1,5.810804103E0
2.227269770E-1,5.778068542E0,-1.052243710E0,4.229314029E-1,5.888307386E0
2.249270210E-1,5.839683533E0,-1.186241865E0,3.756731451E-1,5.970779165E0
2.271196280E-1,5.911468506E0,-1.292124271E0,3.290131092E-1,6.059974806E0
2.293100160E-1,5.968895912E0,-1.402194023E0,3.014956415E-1,6.138791910E0
2.314856850E-1,6.044867992E0,-1.512862086E0,2.685943544E-1,6.237092565E0
2.337053200E-1,6.102295876E0,-1.622931957E0,2.745763958E-1,6.320388856E0
2.358940310E-1,6.159125328E0,-1.737189293E0,2.799602449E-1,6.405546751E0
2.381067800E-1,6.245266914E0,-1.843071699E0,2.476571500E-1,6.516257069E0
2.402965980E-1,6.345765591E0,-1.938784599E0,2.297109663E-1,6.639306725E0
2.424960110E-1,6.445665836E0,-2.073380709E0,2.069791555E-1,6.774094479E0
2.446889230E-1,6.550352097E0,-2.202593327E0,2.039881349E-1,6.913764612E0
2.468860970E-1,6.665207386E0,-2.356332064E0,1.333998591E-1,7.070720318E0
2.490744210E-1,6.769893646E0,-2.504687071E0,1.304088384E-1,7.219551494E0
2.512513620E-1,6.865606308E0,-2.657827854E0,1.220339537E-1,7.363116946E0
2.534734380E-1,7.003791809E0,-2.820539713E0,9.990034252E-2,7.551061121E0
2.556692690E-1,7.113263607E0,-2.979064226E0,7.716853172E-2,7.712282268E0
2.578723330E-1,7.232904434E0,-3.141776085E0,7.896314561E-2,7.886184039E0
2.600628650E-1,7.337590694E0,-3.285345554E0,5.623133108E-2,8.039707369E0
2.622575260E-1,7.428517818E0,-3.404986620E0,3.828516230E-2,8.171797637E0
2.644560940E-1,7.509275436E0,-3.525225878E0,-3.589233849E-3,8.295567970E0
2.666605820E-1,7.604988575E0,-3.635295868E0,-4.067798331E-2,8.429287157E0
2.688463020E-1,7.676175117E0,-3.745963812E0,-6.340979785E-2,8.541658511E0
2.710434650E-1,7.767102242E0,-3.865604877E0,-1.196411327E-1,8.676698237E0
2.732358590E-1,7.890930653E0,-3.990629911E0,-2.045863420E-1,8.844985541E0
2.754286790E-1,8.058428764E0,-4.144967079E0,-3.026920557E-1,9.067008808E0
2.776069730E-1,8.225327492E0,-4.337589264E0,-5.114658475E-1,9.313017249E0
2.798276550E-1,8.464012146E0,-4.592424870E0,-7.668996453E-1,9.660124371E0
2.820257650E-1,8.669795036E0,-4.775475979E0,-9.320043921E-1,9.941788017E0
2.842253610E-1,8.779266357E0,-4.847858906E0,-9.547362328E-1,1.007416374E1
2.864154650E-1,8.879764557E0,-4.905286312E0,-9.774680734E-1,1.019154042E1
2.886112040E-1,8.994620323E0,-4.948955536E0,-1.034297585E0,1.031819399E1
2.908077780E-1,9.161520004E0,-5.006382942E0,-1.056431174E0,1.049349159E1
2.930042410E-1,9.372088432E0,-5.088337421E0,-1.030708313E0,1.071398987E1
2.952009050E-1,9.586843491E0,-5.183452129E0,-9.134600163E-1,1.093664269E1
2.973906940E-1,9.806385040E0,-5.264808178E0,-8.111668825E-1,1.115981113E1
2.995707280E-1,9.987641335E0,-5.355735302E0,-7.519445419E-1,1.135791797E1
3.017887360E-1,1.021196842E1,-5.461019516E0,-6.448656917E-1,1.159840010E1
3.039791440E-1,1.042672443E1,-5.565705299E0,-5.467599630E-1,1.183184704E1
3.061632470E-1,1.064148045E1,-5.704489231E0,-4.636093974E-1,1.208293165E1
3.083706040E-1,1.085145092E1,-5.847460270E0,-3.415754437E-1,1.233140107E1
3.105422860E-1,1.105663490E1,-5.986244202E0,-2.386840582E-1,1.257542306E1
3.127527350E-1,1.124267673E1,-6.124429703E0,-1.076770201E-1,1.280304705E1
3.149656460E-1,1.144726372E1,-6.306283951E0,1.435693540E-2,1.306940205E1
3.171690770E-1,1.160937691E1,-6.473183632E0,1.166501045E-1,1.329260493E1
3.193631980E-1,1.177149105E1,-6.625725746E0,2.428714931E-1,1.351026387E1
3.215541970E-1,1.193839073E1,-6.793223381E0,3.403790295E-1,1.374004785E1
3.237497950E-1,1.208614731E1,-6.975078106E0,3.900300860E-1,1.395989953E1
3.259402450E-1,1.224826050E1,-7.151548862E0,4.689932466E-1,1.419100035E1
3.281181010E-1,1.239661598E1,-7.338188648E0,4.803591371E-1,1.441373808E1
3.303412460E-1,1.252044487E1,-7.529614449E0,4.821537733E-1,1.461810883E1
3.325164680E-1,1.261555958E1,-7.749754429E0,4.929214716E-1,1.481398018E1
3.347394200E-1,1.267717457E1,-7.978269100E0,7.674978375E-1,1.499841944E1
3.369400720E-1,1.256052399E1,-8.243273735E0,2.193620205E0,1.518322411E1
3.391294750E-1,1.226620674E1,-8.524430275E0,4.019941807E0,1.546886135E1
3.413181550E-1,1.205504036E1,-8.659027100E0,4.727021217E0,1.557714601E1
3.435066610E-1,1.216152096E1,-8.694919586E0,3.474378586E0,1.534846980E1
3.456864610E-1,1.248335552E1,-8.746364594E0,1.912463546E0,1.536198475E1
3.479087210E-1,1.289551926E1,-8.818149567E0,1.112064362E0,1.566176445E1
3.501049080E-1,1.321555901E1,-8.877371788E0,9.284151793E-1,1.594743504E1
3.523081750E-1,1.342074394E1,-8.953344345E0,1.107278705E0,1.617111032E1
3.544960930E-1,1.351585865E1,-9.047860146E0,1.319043517E0,1.631815198E1
3.566926770E-1,1.352542973E1,-9.171689034E0,1.463211060E0,1.640725802E1
3.588883460E-1,1.352004623E1,-9.343972206E0,1.415952802E0,1.649564758E1
3.610846540E-1,1.353440285E1,-9.522237778E0,1.229910851E0,1.659414817E1
3.632744220E-1,1.359661674E1,-9.700503349E0,9.391828775E-1,1.672871234E1
3.654526050E-1,1.372104359E1,-9.893125534E0,7.639086246E-1,1.693294205E1
3.676735720E-1,1.382572937E1,-1.009890842E1,7.130611539E-1,1.713613726E1
3.698637990E-1,1.395912933E1,-1.030947590E1,7.722834945E-1,1.737063634E1
3.720456830E-1,1.409252930E1,-1.052901745E1,8.847461939E-1,1.761369826E1
3.742618490E-1,1.424507141E1,-1.073420238E1,9.870393276E-1,1.786391354E1
3.764514040E-1,1.441197109E1,-1.095434189E1,1.065404296E0,1.813387998E1
3.786351610E-1,1.460279846E1,-1.113141060E1,1.149153113E0,1.839756989E1
3.808502590E-1,1.477926922E1,-1.134676456E1,1.175474167E0,1.866969749E1
3.830407600E-1,1.496471310E1,-1.155194950E1,1.259222865E0,1.894665716E1
3.852232850E-1,1.512682629E1,-1.175294685E1,1.313659668E0,1.920099828E1
3.874395740E-1,1.529372597E1,-1.195872974E1,1.373480201E0,1.946267502E1
3.896349070E-1,1.544208050E1,-1.210708427E1,1.432702541E0,1.967465314E1
3.918380720E-1,1.557069492E1,-1.225484085E1,1.462612867E0,1.986874181E1
3.940265280E-1,1.571845150E1,-1.239900875E1,1.473978758E0,2.007430569E1
3.962224410E-1,1.586142349E1,-1.252822113E1,1.470987678E0,2.026585514E1
3.984190660E-1,1.599542141E1,-1.262871933E1,1.467398524E0,2.043260425E1
4.006167080E-1,1.608096504E1,-1.272921848E1,1.506880045E0,2.056455998E1
4.028118680E-1,1.611446381E1,-1.280100250E1,1.555334687E0,2.063881476E1
4.050088380E-1,1.613839149E1,-1.283928776E1,1.564906001E0,2.068197092E1
4.072039480E-1,1.614796448E1,-1.284347534E1,1.632503271E0,2.069726268E1
4.093940720E-1,1.615753555E1,-1.281954765E1,1.660618901E0,2.069213407E1
4.115708400E-1,1.618146324E1,-1.279561901E1,1.680359721E0,2.069761405E1
4.137921540E-1,1.619581985E1,-1.270947742E1,1.679761529E0,2.065567709E1
4.159874860E-1,1.622932053E1,-1.262812138E1,1.684547186E0,2.063245001E1
4.181875190E-1,1.628674698E1,-1.251865005E1,1.665404558E0,2.060942257E1
4.203815290E-1,1.633460426E1,-1.241815090E1,1.679761529E0,2.058765084E1
4.225792020E-1,1.637288857E1,-1.227936745E1,1.674377680E0,2.053430996E1
4.247739540E-1,1.641655731E1,-1.213101292E1,1.736590981E0,2.048610692E1
4.269687390E-1,1.648355675E1,-1.200180054E1,1.765304923E0,2.046624442E1
4.291586800E-1,1.651705742E1,-1.183908844E1,1.822134495E0,2.040336676E1
4.313308810E-1,1.658884048E1,-1.165244770E1,1.898704767E0,2.036109638E1
4.335325200E-1,1.666062546E1,-1.148913765E1,1.974676847E0,2.033411108E1
4.357548910E-1,1.673241043E1,-1.135095215E1,1.998605132E0,2.031777783E1
4.379563380E-1,1.677129364E1,-1.112124157E1,2.045863390E0,2.022730485E1
4.401535730E-1,1.682393646E1,-1.094417286E1,2.098505497E0,2.017977906E1
4.423368320E-1,1.686222076E1,-1.080538845E1,2.131406784E0,2.014035262E1
4.445155830E-1,1.688614845E1,-1.060917759E1,2.130808592E0,2.005584713E1
4.467342110E-1,1.689153290E1,-1.040818024E1,2.163709879E0,1.995835013E1
4.489307230E-1,1.686760521E1,-1.021196842E1,2.172084808E0,1.983729712E1
4.511329840E-1,1.686820412E1,-1.000139999E1,2.195414782E0,1.973281931E1
4.533238920E-1,1.685863113E1,-9.805189133E0,2.222932339E0,1.962897363E1
4.555194900E-1,1.682573128E1,-9.599406242E0,2.274377823E0,1.950452839E1
4.577160730E-1,1.679701614E1,-9.431908607E0,2.211566210E0,1.939050480E1
4.599111010E-1,1.675933075E1,-9.298508644E0,2.196012974E0,1.929144637E1
4.621074310E-1,1.673061562E1,-9.169296265E0,2.157129526E0,1.920007033E1
4.642973420E-1,1.662114334E1,-8.958727837E0,2.193620205E0,1.900876587E1
4.664746490E-1,1.653081512E1,-8.752944946E0,2.196611166E0,1.883366652E1
4.686966640E-1,1.645903015E1,-8.590232849E0,2.190629244E0,1.869466850E1
4.708936850E-1,1.640220070E1,-8.417949677E0,2.194218397E0,1.856633133E1
4.730947150E-1,1.634537125E1,-8.264809608E0,2.198405743E0,1.844752631E1
4.752860500E-1,1.630230141E1,-8.111668587E0,2.178066730E0,1.833870696E1
4.774801320E-1,1.626461411E1,-7.972885132E0,2.172683001E0,1.824349530E1
4.796766240E-1,1.619761467E1,-7.819744587E0,2.161915302E0,1.811587713E1
4.818726080E-1,1.614078522E1,-7.666603565E0,2.160718918E0,1.799917953E1
4.840692120E-1,1.605942917E1,-7.489534855E0,2.159522533E0,1.785110459E1
4.862654410E-1,1.599302864E1,-7.341179848E0,2.124826431E0,1.772525808E1
4.884622990E-1,1.590210152E1,-7.168896675E0,2.151745796E0,1.757554899E1
4.906580900E-1,1.580698681E1,-7.034898758E0,2.102692842E0,1.742905476E1
4.928558030E-1,1.572622871E1,-6.881757736E0,2.082353830E0,1.729187834E1
4.950497120E-1,1.562573051E1,-6.747759819E0,2.085943222E0,1.714779507E1
4.972399880E-1,1.551147270E1,-6.642475605E0,2.065604210E0,1.699985260E1
4.994170720E-1,1.538764381E1,-6.522834301E0,2.035095692E0,1.683652470E1
5.016383250E-1,1.527278900E1,-6.431907177E0,2.009970903E0,1.669333690E1
5.038383270E-1,1.514417458E1,-6.312266350E0,1.980060697E0,1.652608152E1
5.060526920E-1,1.501496220E1,-6.221338749E0,1.954936147E0,1.636997010E1
5.082204370E-1,1.489591885E1,-6.092126369E0,1.919641972E0,1.620763485E1
5.103929230E-1,1.477687645E1,-6.006583214E0,1.846660852E0,1.605756133E1
5.125924050E-1,1.467159176E1,-5.915655613E0,1.744965911E0,1.591525972E1
5.148154180E-1,1.455733490E1,-5.830112457E0,1.657627940E0,1.576876473E1
5.170174550E-1,1.444786358E1,-5.758327484E0,1.575075507E0,1.563265685E1
5.192133470E-1,1.429472256E1,-5.667400360E0,1.516451359E0,1.545180069E1
5.214044680E-1,1.412303734E1,-5.596213818E0,1.423729420E0,1.525794214E1
5.236009000E-1,1.398006630E1,-5.534000397E0,1.341177106E0,1.509523667E1
5.257961510E-1,1.383171082E1,-5.462215900E0,1.301097274E0,1.492798984E1
5.279931940E-1,1.367916870E1,-5.395216942E0,1.242473125E0,1.475709191E1
5.301825850E-1,1.353141212E1,-5.352146149E0,1.198205948E0,1.460069450E1
5.323616020E-1,1.340698528E1,-5.319244862E0,1.106082320E0,1.446599593E1
5.345803410E-1,1.328315639E1,-5.319244862E0,9.762716293E-1,1.434188677E1
5.367774030E-1,1.317308712E1,-5.300700188E0,8.745766878E-1,1.422647290E1
5.389805480E-1,1.309232903E1,-5.310869694E0,7.495517135E-1,1.414836542E1
5.411703790E-1,1.300140190E1,-5.353940487E0,6.484549642E-1,1.407556834E1
5.433588860E-1,1.292961693E1,-5.416752338E0,4.953143001E-1,1.402717135E1
5.455365280E-1,1.287697506E1,-5.517848969E0,3.661018610E-1,1.401417762E1
5.477579640E-1,1.278126240E1,-5.613562107E0,2.895315289E-1,1.396268515E1
5.499480170E-1,1.266221905E1,-5.747560024E0,2.362912297E-1,1.390762636E1
5.521227000E-1,1.254736328E1,-5.848058701E0,2.069791555E-1,1.384481695E1
5.543134440E-1,1.239422321E1,-5.958128452E0,1.441675574E-1,1.375270330E1
5.565041890E-1,1.222672558E1,-6.053841114E0,1.004985496E-1,1.364374987E1
5.587401720E-1,1.205444241E1,-6.120242119E0,5.623133108E-2,1.351924951E1
5.609289530E-1,1.190190029E1,-6.168098450E0,7.178467698E-3,1.340524974E1
5.631309900E-1,1.170568848E1,-6.225526333E0,-4.187439755E-2,1.325828323E1
5.653434740E-1,1.156271744E1,-6.230311871E0,-9.511470050E-2,1.313477321E1
5.675228870E-1,1.138086224E1,-6.263811588E0,-1.680957973E-1,1.299182886E1
5.697184840E-1,1.125224876E1,-6.282954216E0,-2.027917206E-1,1.288913265E1
5.719107550E-1,1.114696407E1,-6.306882381E0,-2.560320199E-1,1.281004004E1
5.741111540E-1,1.104646587E1,-6.345167637E0,-2.901297510E-1,1.274243838E1
5.763020620E-1,1.095075321E1,-6.373881340E0,-3.337987661E-1,1.267504560E1
5.784784320E-1,1.086939716E1,-6.426523209E0,-3.631108403E-1,1.263233331E1
5.807008850E-1,1.083649540E1,-6.451049805E0,-4.348955154E-1,1.261882761E1
5.828900640E-1,1.080299568E1,-6.503692150E0,-4.779663086E-1,1.261868373E1
5.850737280E-1,1.079821014E1,-6.541976929E0,-5.306084156E-1,1.263646904E1
5.872876170E-1,1.077428246E1,-6.604190350E0,-5.449653864E-1,1.264901102E1
5.894839160E-1,1.073599720E1,-6.652047157E0,-5.210371017E-1,1.264052400E1
5.916878450E-1,1.064507008E1,-6.680162430E0,-4.881358147E-1,1.257697752E1
5.938774700E-1,1.055892849E1,-6.703492641E0,-4.408775866E-1,1.251487745E1
5.960746140E-1,1.045364380E1,-6.708278179E0,-4.031906128E-1,1.242747873E1
5.982786760E-1,1.033878803E1,-6.707680225E0,-3.846462369E-1,1.233010400E1
6.004649140E-1,1.023350430E1,-6.678966045E0,-3.427718580E-1,1.222500266E1
6.026615390E-1,1.013838959E1,-6.654439926E0,-3.290131092E-1,1.213164308E1
6.048550410E-1,1.005703354E1,-6.625725746E0,-3.158525825E-1,1.204756939E1
6.070535880E-1,9.961320877E0,-6.577869415E0,-3.403790295E-1,1.194203239E1
6.092440370E-1,9.904491425E0,-6.530013084E0,-3.314059377E-1,1.186801800E1
6.114232670E-1,9.842277527E0,-6.476772785E0,-3.176472187E-1,1.178642916E1
6.136421600E-1,9.780064583E0,-6.414559364E0,-3.284149170E-1,1.170060218E1
6.158330470E-1,9.765707016E0,-6.376274109E0,-3.140579760E-1,1.166724207E1
6.180158270E-1,9.703494072E0,-6.318846226E0,-3.098705411E-1,1.158367967E1
6.202306100E-1,9.670592308E0,-6.266204357E0,-2.961117923E-1,1.152707052E1
6.224261160E-1,9.632308006E0,-6.203990936E0,-2.823530734E-1,1.146082826E1
6.246285290E-1,9.546165466E0,-6.141777515E0,-2.877369225E-1,1.135488876E1
6.268189580E-1,9.498908043E0,-6.074180126E0,-2.793620527E-1,1.127842903E1
6.290162040E-1,9.455837250E0,-6.007181168E0,-2.751746178E-1,1.120601645E1
6.312056360E-1,9.393623352E0,-5.949753284E0,-2.853440940E-1,1.112300072E1
6.333844580E-1,9.379266739E0,-5.897111416E0,-2.949153781E-1,1.108302949E1
6.356032900E-1,9.322437286E0,-5.820540905E0,-2.961117923E-1,1.099428104E1
6.377996510E-1,9.303294182E0,-5.758327484E0,-3.056831062E-1,1.094545843E1
6.400011180E-1,9.284152031E0,-5.720640659E0,-3.254238665E-1,1.090995459E1
6.421854030E-1,9.293723106E0,-5.658427238E0,-3.397808075E-1,1.088607087E1
6.443626700E-1,9.284152031E0,-5.624927998E0,-3.254238665E-1,1.086007342E1
6.465854580E-1,9.288937569E0,-5.615356445E0,-3.158525825E-1,1.085892960E1
6.487809040E-1,9.279366493E0,-5.577071190E0,-3.116651475E-1,1.083085873E1
6.509838340E-1,9.265008926E0,-5.552545071E0,-2.829512656E-1,1.080514732E1
6.531724440E-1,9.245866776E0,-5.533402443E0,-2.452643216E-1,1.077797521E1
6.553689660E-1,9.260223389E0,-5.509474277E0,-2.261217386E-1,1.077762381E1
6.575647670E-1,9.260223389E0,-5.480760098E0,-1.878365725E-1,1.076223727E1
6.597611580E-1,9.265008926E0,-5.442475319E0,-1.782652885E-1,1.074675330E1
6.619576000E-1,9.260223389E0,-5.399404526E0,-1.686939895E-1,1.072071659E1
6.641481210E-1,9.260822296E0,-5.365306377E0,-1.501496136E-1,1.070382581E1
6.663248180E-1,9.284749985E0,-5.332405090E0,-1.501496136E-1,1.070811240E1
6.685406180E-1,9.289535522E0,-5.307878971E0,-1.118644550E-1,1.069960574E1
6.707165210E-1,9.308678627E0,-5.264808178E0,-8.315058798E-2,1.069470041E1
6.729442430E-1,9.336793900E0,-5.236093998E0,-5.922235921E-2,1.070494783E1
6.751338180E-1,9.337391853E0,-5.188237667E0,-6.879365444E-2,1.068220152E1
6.773360380E-1,9.346963882E0,-5.178666592E0,-2.093719877E-2,1.068572692E1
6.795239350E-1,9.356534958E0,-5.126024246E0,-2.093719877E-2,1.066870701E1
6.817236710E-1,9.361320496E0,-5.082953453E0,-1.136590727E-2,1.065227048E1
6.839193500E-1,9.375677109E0,-5.015954494E0,-2.153540403E-2,1.063313616E1
6.861166980E-1,9.399605751E0,-4.949553490E0,-6.939185411E-2,1.062334614E1
6.883110340E-1,9.409176826E0,-4.901697159E0,-9.332008660E-2,1.060980453E1
6.905075570E-1,9.404391289E0,-4.863411903E0,-1.411765367E-1,1.058845039E1
6.927031540E-1,9.438488960E0,-4.797011375E0,-1.986042857E-1,1.058942093E1
6.948993010E-1,9.467203140E0,-4.730011940E0,-2.129612118E-1,1.058519252E1
6.970922540E-1,9.495916367E0,-4.697110653E0,-2.464607358E-1,1.059698160E1
6.992787860E-1,9.524630547E0,-4.630111694E0,-2.368894368E-1,1.059304668E1
7.014883720E-1,9.558130264E0,-4.567898273E0,-2.512463629E-1,1.059654064E1
7.036819750E-1,9.601201057E0,-4.482355118E0,-2.751746178E-1,1.059954198E1
7.058658230E-1,9.658628464E0,-4.405784607E0,-3.038884699E-1,1.062037617E1
7.080764550E-1,9.716055870E0,-4.339384079E0,-2.991028428E-1,1.064525520E1
7.102658990E-1,9.763913155E0,-4.277170658E0,-3.134597540E-1,1.066426022E1
7.124478550E-1,9.845269203E0,-4.219742775E0,-2.985046208E-1,1.071562690E1
7.146653630E-1,9.912267685E0,-4.152743816E0,-2.793620527E-1,1.075064533E1
7.168617840E-1,9.984052658E0,-4.119244099E0,-2.596212626E-1,1.080355879E1
7.190636590E-1,1.006062317E1,-4.085744858E0,-2.255235314E-1,1.086095348E1
7.212544140E-1,1.011326504E1,-4.028316975E0,-1.633101404E-1,1.088724656E1
7.234497770E-1,1.016590691E1,-3.970290899E0,-7.716853172E-2,1.091397398E1
7.256459340E-1,1.020419216E1,-3.865006685E0,1.854437590E-2,1.091165241E1
7.278416430E-1,1.025204849E1,-3.773481369E0,1.094716340E-1,1.092500087E1
7.300368840E-1,1.030947590E1,-3.696911097E0,1.860419661E-1,1.095386035E1
7.322297750E-1,1.036690426E1,-3.610769272E0,2.721835673E-1,1.098109478E1
7.344316190E-1,1.043809032E1,-3.528815269E0,3.487538993E-1,1.102396916E1
7.366268500E-1,1.050508976E1,-3.452244759E0,4.115654826E-1,1.106545484E1
7.388247360E-1,1.057687473E1,-3.370888948E0,4.689932466E-1,1.111094623E1
7.410183400E-1,1.061515903E1,-3.318246841E0,5.216353536E-1,1.113393313E1
7.432087800E-1,1.066780186E1,-3.245863914E0,5.934200287E-1,1.116645765E1
7.453876950E-1,1.069651508E1,-3.193221807E0,6.556333899E-1,1.118221604E1
7.476072980E-1,1.071087265E1,-3.145365477E0,6.939185858E-1,1.118470562E1
7.497974640E-1,1.073480034E1,-3.072982550E0,7.704889178E-1,1.119253382E1
7.519817700E-1,1.074915791E1,-3.029911757E0,7.944171429E-1,1.119624310E1
7.541959410E-1,1.074915791E1,-2.943770170E0,8.416753411E-1,1.117669879E1
7.563927700E-1,1.076830006E1,-2.891128063E0,8.608179688E-1,1.118284021E1
7.585937900E-1,1.079701424E1,-2.857628345E0,8.751748800E-1,1.120301242E1
7.607838940E-1,1.082094193E1,-2.838485956E0,8.416753411E-1,1.121865429E1
7.629734180E-1,1.084487057E1,-2.833700180E0,8.560323119E-1,1.124161312E1
7.651506130E-1,1.085922718E1,-2.833700180E0,8.709874153E-1,1.125661098E1
7.673730360E-1,1.085444164E1,-2.842673302E0,9.188438654E-1,1.125806240E1
7.695698540E-1,1.084965611E1,-2.837887764E0,9.421738982E-1,1.125416973E1
7.717720220E-1,1.083051395E1,-2.847458839E0,9.661021233E-1,1.124016938E1
7.739627780E-1,1.082094193E1,-2.861815929E0,9.708877802E-1,1.123500768E1
7.761505220E-1,1.080179977E1,-2.866601467E0,9.900303483E-1,1.121946712E1
7.783277480E-1,1.079222870E1,-2.847458839E0,9.804590940E-1,1.120453132E1
7.805489900E-1,1.077308559E1,-2.847458839E0,9.702895880E-1,1.118520706E1
7.827456550E-1,1.077787113E1,-2.852244616E0,9.565308690E-1,1.118985062E1
7.849487290E-1,1.077787113E1,-2.852244616E0,9.613165259E-1,1.119026072E1
7.871389750E-1,1.077308559E1,-2.847458839E0,9.511470199E-1,1.118356275E1
7.893342380E-1,1.077787113E1,-2.842673302E0,9.607182741E-1,1.118777356E1
7.915322050E-1,1.079701424E1,-2.847458839E0,9.326026440E-1,1.120505627E1
7.937262460E-1,1.079701424E1,-2.857030153E0,9.469595551E-1,1.120869618E1
7.959206320E-1,1.080658531E1,-2.837887764E0,9.421738982E-1,1.121265288E1
7.981119180E-1,1.081615639E1,-2.842673302E0,9.326026440E-1,1.122228935E1
8.002893670E-1,1.082094193E1,-2.828316450E0,9.086744189E-1,1.122131219E1
8.025115650E-1,1.084008503E1,-2.804388046E0,9.278169870E-1,1.123534068E1
8.047080070E-1,1.084965611E1,-2.813959360E0,9.182456732E-1,1.124618068E1
8.069096470E-1,1.085922718E1,-2.804388046E0,9.230313301E-1,1.125341700E1
8.090981940E-1,1.087358475E1,-2.790031195E0,9.326026440E-1,1.126449586E1
8.112863750E-1,1.088315582E1,-2.766701221E0,9.134600163E-1,1.126641582E1
8.134916770E-1,1.088794136E1,-2.747558594E0,9.230313301E-1,1.126713505E1
8.156859230E-1,1.091665554E1,-2.737987280E0,9.284151793E-1,1.129300214E1
8.178795060E-1,1.091665554E1,-2.752344131E0,9.092726111E-1,1.129493440E1
8.200809320E-1,1.093101215E1,-2.747558594E0,9.284151793E-1,1.130920243E1
8.222775870E-1,1.092622662E1,-2.742174864E0,9.427721500E-1,1.130445799E1
8.244742010E-1,1.093101215E1,-2.757129908E0,9.188438654E-1,1.131075002E1
8.266630540E-1,1.094536877E1,-2.766701221E0,8.997012973E-1,1.132542253E1
8.288435650E-1,1.093579769E1,-2.781058073E0,9.188438654E-1,1.132122914E1
8.310836370E-1,1.093579769E1,-2.790629387E0,9.140582681E-1,1.132319681E1
8.332580360E-1,1.093579769E1,-2.819343328E0,8.949156404E-1,1.132877937E1
8.354588400E-1,1.094058323E1,-2.838485956E0,9.002995491E-1,1.133860235E1
8.376622200E-1,1.094536877E1,-2.881556749E0,8.715856671E-1,1.135183370E1
8.398477570E-1,1.093579769E1,-2.905484915E0,8.763712645E-1,1.134907663E1
8.420357660E-1,1.093579769E1,-2.948555708E0,8.476574421E-1,1.135800049E1
8.442145980E-1,1.090229797E1,-2.982055187E0,8.285148144E-1,1.133310156E1
8.464335930E-1,1.089751244E1,-3.015554667E0,8.141579032E-1,1.133632217E1
8.486303200E-1,1.088794136E1,-3.063411236E0,7.854440212E-1,1.133793093E1
8.508319180E-1,1.089691448E1,-3.125624657E0,7.621139884E-1,1.136191412E1
8.530222870E-1,1.091127110E1,-3.198007345E0,7.004988194E-1,1.139182981E1
8.552186470E-1,1.092084217E1,-3.284149170E0,6.532405615E-1,1.142265962E1
8.574155880E-1,1.093519974E1,-3.342175007E0,6.245267391E-1,1.145158333E1
8.596110720E-1,1.092562866E1,-3.442673683E0,5.820540786E-1,1.146996734E1
8.618079830E-1,1.091605663E1,-3.533600807E0,5.820540786E-1,1.148849050E1
8.639967740E-1,1.092024422E1,-3.619742393E0,5.635097623E-1,1.151832505E1
8.661738380E-1,1.089631653E1,-3.705883980E0,5.539384484E-1,1.152259249E1
8.683886800E-1,1.088674450E1,-3.768097401E0,5.306084156E-1,1.153261935E1
8.705672600E-1,1.086281681E1,-3.844667673E0,5.066801906E-1,1.153425262E1
8.727984720E-1,1.084845924E1,-3.916452408E0,4.683950245E-1,1.154326909E1
8.749851570E-1,1.084845924E1,-3.973880291E0,4.019941986E-1,1.156038026E1
8.771803270E-1,1.085803127E1,-4.046263218E0,3.637090325E-1,1.159316063E1
8.793534230E-1,1.086281681E1,-4.122833252E0,2.925225794E-1,1.162256910E1
8.815803870E-1,1.087238789E1,-4.195216179E0,2.255235314E-1,1.165587912E1
8.837501720E-1,1.088195896E1,-4.295714855E0,1.974078715E-1,1.170081907E1
8.859273670E-1,1.087657547E1,-4.381856441E0,1.405783296E-1,1.172690590E1
8.881544690E-1,1.088136101E1,-4.477569580E0,1.411765367E-1,1.176743717E1
8.903570450E-1,1.086700439E1,-4.568496704E0,1.028913707E-1,1.178870363E1
8.925605260E-1,1.085743237E1,-4.664209366E0,8.913264424E-2,1.181721757E1
8.947494090E-1,1.083829021E1,-4.750350952E0,6.999006122E-2,1.183381881E1
8.969454340E-1,1.082871914E1,-4.826921463E0,5.084748194E-2,1.185592318E1
8.991375310E-1,1.080000496E1,-4.908277512E0,2.751746029E-2,1.186305409E1
9.013379100E-1,1.079462147E1,-4.970490932E0,3.589233849E-3,1.188400798E1
9.035289910E-1,1.078026390E1,-5.042275429E0,-5.982056726E-3,1.190120444E1
9.057109980E-1,1.077069283E1,-5.094917774E0,-1.016949583E-2,1.191495340E1
9.079266850E-1,1.075155067E1,-5.137988567E0,-3.888336942E-2,1.191621921E1
9.101265140E-1,1.074197865E1,-5.181657314E0,-6.759724021E-2,1.192661927E1
9.123376660E-1,1.074676514E1,-5.229514122E0,-9.631111473E-2,1.195198957E1
9.145165300E-1,1.075633621E1,-5.267798901E0,-1.579262912E-1,1.197803885E1
9.167106410E-1,1.075633621E1,-5.310869694E0,-1.866401732E-1,1.199745557E1
9.189032380E-1,1.076590729E1,-5.368896008E0,-2.201396823E-1,1.203238403E1
9.211025070E-1,1.078504944E1,-5.411966801E0,-2.434697002E-1,1.206921512E1
9.232996810E-1,1.078026390E1,-5.445466042E0,-2.913261652E-1,1.208106209E1
9.254957770E-1,1.076590729E1,-5.488536835E0,-3.296113312E-1,1.208873194E1
9.276926870E-1,1.075633621E1,-5.522634506E0,-3.577269912E-1,1.209653790E1
9.298880100E-1,1.075155067E1,-5.575276852E0,-4.007977843E-1,1.211776352E1
9.320898930E-1,1.077547836E1,-5.613562107E0,-4.342973232E-1,1.215778054E1
9.342993250E-1,1.078923702E1,-5.662016392E0,-4.719842672E-1,1.219380311E1
9.364762260E-1,1.081795120E1,-5.700301647E0,-5.048855543E-1,1.223831755E1
9.386721380E-1,1.085145092E1,-5.748157978E0,-5.383850932E-1,1.229167058E1
9.408633200E-1,1.087537861E1,-5.787041664E0,-5.904290080E-1,1.233338224E1
9.430617770E-1,1.089930725E1,-5.820540905E0,-6.233302951E-1,1.237182831E1
9.452488390E-1,1.091366386E1,-5.859424591E0,-6.855437160E-1,1.240608261E1
9.474570910E-1,1.093280697E1,-5.897709846E0,-7.088736892E-1,1.244233706E1
9.496491790E-1,1.094237804E1,-5.945566177E0,-7.519445419E-1,1.247600958E1
9.518332810E-1,1.098066330E1,-5.993422508E0,-7.657032609E-1,1.253325103E1
9.540406800E-1,1.100937653E1,-6.017949104E0,-7.944171429E-1,1.257192036E1
9.562219940E-1,1.104706383E1,-6.070590973E0,-8.273184299E-1,1.263226622E1
9.584421280E-1,1.111406326E1,-6.113661766E0,-8.315058947E-1,1.271183167E1
9.606337880E-1,1.116670513E1,-6.166304111E0,-8.452646136E-1,1.278409489E1
9.628295080E-1,1.121934700E1,-6.224329948E0,-8.679963946E-1,1.285960529E1
9.649943830E-1,1.126241779E1,-6.267400742E0,-8.727820516E-1,1.291836348E1
9.671984450E-1,1.131924725E1,-6.320042610E0,-8.578268886E-1,1.299246565E1
9.694179380E-1,1.135274696E1,-6.343971252E0,-8.524430394E-1,1.303293881E1
9.716210520E-1,1.139103222E1,-6.420541286E0,-8.231309652E-1,1.310177507E1
9.738167300E-1,1.141496086E1,-6.454041004E0,-8.129615188E-1,1.313837445E1
9.760006190E-1,1.142871952E1,-6.486942291E0,-7.986045480E-1,1.316563023E1
9.781773470E-1,1.148136139E1,-6.516254425E0,-8.171489239E-1,1.322690302E1
9.804001350E-1,1.149571800E1,-6.564110756E0,-8.267202377E-1,1.326357979E1
9.825954890E-1,1.152443218E1,-6.611967087E0,-8.739784956E-1,1.331519749E1
9.847999260E-1,1.155793190E1,-6.655037880E0,-8.781659007E-1,1.336587050E1
9.869878130E-1,1.157707405E1,-6.702894211E0,-8.877372146E-1,1.340692029E1
9.891842330E-1,1.160100269E1,-6.789634228E0,-9.110672474E-1,1.347265527E1
9.913800650E-1,1.162911797E1,-6.866204739E0,-9.104689956E-1,1.353551277E1
9.935758150E-1,1.164347458E1,-6.947560310E0,-9.146564603E-1,1.358954344E1
9.957720120E-1,1.166261768E1,-7.033103943E0,-8.901300430E-1,1.364820625E1
9.979631440E-1,1.165783215E1,-7.152745247E0,-8.512466550E-1,1.370370154E1
1.000139892E0,1.165723324E1,-7.286144733E0,-7.980063558E-1,1.377010552E1
1.002362101E0,1.164287663E1,-7.352545738E0,-7.166503668E-1,1.378876690E1
1.004550861E0,1.163330555E1,-7.405188084E0,-6.687939167E-1,1.380644393E1
1.006734526E0,1.162313557E1,-7.472187042E0,-6.640082598E-1,1.383371846E1
1.008945017E0,1.163749313E1,-7.553543091E0,-6.729813814E-1,1.389029026E1
1.011131124E0,1.164227867E1,-7.615756035E0,-6.628118753E-1,1.392773177E1
1.013347889E0,1.166620636E1,-7.706085205E0,-6.430711150E-1,1.399634454E1
1.015538757E0,1.166620636E1,-7.768298626E0,-6.382854581E-1,1.403047550E1
1.017737263E0,1.166082287E1,-7.864011765E0,-6.281159520E-1,1.407877838E1
1.019931090E0,1.165603733E1,-7.930412292E0,-5.659025311E-1,1.410939017E1
1.022125802E0,1.165603733E1,-7.959126472E0,-5.132604837E-1,1.412353839E1
1.024322376E0,1.163689518E1,-7.977670670E0,-4.462614357E-1,1.411593808E1
1.026514140E0,1.165603733E1,-7.953742504E0,-4.223332107E-1,1.411749239E1
1.028698678E0,1.164646626E1,-7.953742504E0,-4.366901219E-1,1.411002815E1
1.030905404E0,1.164646626E1,-7.987242222E0,-4.606183469E-1,1.412969865E1
1.033082346E0,1.164168072E1,-8.030911446E0,-5.180460811E-1,1.415247824E1
1.035307515E0,1.159382439E1,-8.121838570E0,-6.083751321E-1,1.416866776E1
1.037493315E0,1.155553913E1,-8.222934723E0,-6.945167780E-1,1.419963005E1
1.039675516E0,1.150289631E1,-8.304290771E0,-7.806583643E-1,1.420870494E1
1.041891439E0,1.145025444E1,-8.391031265E0,-8.476574421E-1,1.422097942E1
1.044090718E0,1.141196918E1,-8.491529465E0,-8.955138922E-1,1.425275617E1
1.046303323E0,1.137368393E1,-8.596813202E0,-9.290133715E-1,1.428737027E1
1.048480040E0,1.135454178E1,-8.673383713E0,-9.619147182E-1,1.432056158E1
1.050676757E0,1.134497070E1,-8.735597610E0,-9.427721500E-1,1.434948937E1
1.052869506E0,1.135872936E1,-8.778069496E0,-8.853443861E-1,1.438259613E1
1.055070658E0,1.137787151E1,-8.806783676E0,-8.368897438E-1,1.441234829E1
1.057264251E0,1.138744259E1,-8.830113411E0,-8.177471161E-1,1.443306835E1
1.059460347E0,1.138744259E1,-8.863613129E0,-8.177471161E-1,1.445358768E1
1.061656106E0,1.139701462E1,-8.926424980E0,-8.793623447E-1,1.450331973E1
1.063847553E0,1.137787151E1,-9.036494255E0,-9.559326172E-1,1.456118113E1
1.066027658E0,1.135334492E1,-9.151350021E0,-9.840483069E-1,1.461553964E1
1.068239938E0,1.131027412E1,-9.280562401E0,-9.457631707E-1,1.466102340E1
1.070410175E0,1.127677536E1,-9.375677109E0,-9.122636318E-1,1.469357712E1
1.072621347E0,1.123849010E1,-9.447462082E0,-8.596215248E-1,1.470704419E1
1.074833719E0,1.120499039E1,-9.518648148E0,-8.644071817E-1,1.472764991E1
1.077029794E0,1.117627621E1,-9.547362328E0,-8.452646136E-1,1.472330634E1
1.079206206E0,1.113799095E1,-9.580862045E0,-8.356932998E-1,1.471550690E1
1.081422394E0,1.110927773E1,-9.552147865E0,-8.219345808E-1,1.467430260E1
1.083612661E0,1.109013462E1,-9.518648148E0,-8.171489239E-1,1.463774166E1
1.085797748E0,1.108534908E1,-9.446864128E0,-8.321040869E-1,1.458837220E1
1.088010812E0,1.108534908E1,-9.370293617E0,-8.656035662E-1,1.454086092E1
1.090207295E0,1.108116150E1,-9.332606316E0,-9.230313301E-1,1.451694416E1
1.092408090E0,1.106680489E1,-9.284749985E0,-9.523434043E-1,1.447714442E1
1.094598855E0,1.104766178E1,-9.251250267E0,-9.667003751E-1,1.444198643E1
1.096799295E0,1.102373409E1,-9.212965012E0,-9.672985673E-1,1.439920498E1
1.099003702E0,1.097587776E1,-9.174679756E0,-9.487541914E-1,1.433683284E1
1.101165353E0,1.092323494E1,-9.131608963E0,-9.302098155E-1,1.426774804E1
1.103384592E0,1.086161995E1,-9.068798065E0,-8.638089895E-1,1.417617904E1
1.105575357E0,1.077547836E1,-8.986844063E0,-8.315058947E-1,1.405580671E1
1.107781982E0,1.068455124E1,-8.915059090E0,-7.459624410E-1,1.393536414E1
1.109965321E0,1.062233829E1,-8.833105087E0,-6.705885530E-1,1.383139564E1
1.112143320E0,1.056072235E1,-8.751151085E0,-6.137589812E-1,1.372910055E1
1.114363942E0,1.053679466E1,-8.712865829E0,-5.617151260E-1,1.368406360E1
1.116560403E0,1.052722359E1,-8.665008545E0,-5.425725579E-1,1.364548257E1
1.118762928E0,1.049372387E1,-8.630910873E0,-5.048855543E-1,1.359653532E1
1.120954162E0,1.048893833E1,-8.583054543E0,-4.474578202E-1,1.356048934E1
1.123149587E0,1.049372387E1,-8.520841599E0,-4.863412082E-1,1.352625262E1
1.125347268E0,1.049372387E1,-8.501698494E0,-4.911268353E-1,1.351437470E1
1.127541330E0,1.047936630E1,-8.501698494E0,-5.246263742E-1,1.350448919E1
1.129730794E0,1.046979523E1,-8.497511864E0,-5.389832854E-1,1.349499251E1
1.131901631E0,1.045065308E1,-8.483154297E0,-5.389832854E-1,1.347110090E1
1.134107217E0,1.042253685E1,-8.449056625E0,-4.725824594E-1,1.342531811E1
1.136326192E0,1.036510944E1,-8.391031265E0,-4.301098585E-1,1.334278434E1
1.138529449E0,1.033639526E1,-8.324031830E0,-3.876372576E-1,1.327707933E1
1.140723774E0,1.028853893E1,-8.246863365E0,-3.212364316E-1,1.318969225E1
1.142909239E0,1.025025368E1,-8.170292854E0,-3.026920557E-1,1.311156010E1
1.145086282E0,1.020299530E1,-8.108079910E0,-2.745763958E-1,1.303523936E1
1.147306406E0,1.014078236E1,-8.045866013E0,-2.518445849E-1,1.294738786E1
1.149502654E0,1.005942631E1,-8.016553879E0,-2.524427772E-1,1.286549343E1
1.151705748E0,9.958928108E0,-7.949554920E0,-2.440679073E-1,1.274500850E1
1.153891031E0,9.873384476E0,-7.930412292E0,-2.446661144E-1,1.266629471E1
1.156072550E0,9.772886276E0,-7.896913052E0,-2.404786795E-1,1.256695555E1
1.158287393E0,9.672387123E0,-7.867600918E0,-2.368894368E-1,1.247037824E1
1.160484069E0,9.572486877E0,-7.877171993E0,-2.470589429E-1,1.239932989E1
1.162684377E0,9.491130829E0,-7.881958008E0,-2.763710022E-1,1.234030824E1
1.164869231E0,9.390632629E0,-7.896314621E0,-3.104687333E-1,1.227322927E1
1.167046955E0,9.337990761E0,-7.915457249E0,-3.349951804E-1,1.224600983E1
1.169268829E0,9.242277145E0,-7.944170952E0,-3.786641955E-1,1.219315076E1
1.171464335E0,9.161520004E0,-7.963313580E0,-4.079762697E-1,1.214554472E1
1.173667195E0,9.084949493E0,-7.977670670E0,-4.654040039E-1,1.209942716E1
1.175856515E0,9.013164520E0,-8.001599312E0,-4.803591371E-1,1.206206745E1
1.178053506E0,8.922237396E0,-8.006384850E0,-5.144568682E-1,1.199888263E1
1.180248972E0,8.860622406E0,-8.001599312E0,-5.294120312E-1,1.195058568E1
1.182439767E0,8.779266357E0,-8.001599312E0,-5.252245665E-1,1.189020480E1
1.184620747E0,8.717052460E0,-7.992027760E0,-5.497509837E-1,1.183899225E1
1.186836801E0,8.650053978E0,-7.982456207E0,-5.599204898E-1,1.178374100E1
1.189033894E0,8.587840080E0,-7.958528042E0,-5.700899959E-1,1.172237896E1
1.191236276E0,8.516654015E0,-7.957930088E0,-5.802595019E-1,1.167042193E1
1.193426137E0,8.444869041E0,-7.938787460E0,-6.000002623E-1,1.160603980E1
1.195623901E0,8.368298531E0,-7.929215908E0,-6.005984545E-1,1.154389898E1
1.197811532E0,8.310871124E0,-7.900502205E0,-5.964110494E-1,1.148234384E1
1.199988911E0,8.225327492E0,-7.857431412E0,-5.778666735E-1,1.138987141E1
1.202209930E0,8.148757935E0,-7.828717709E0,-5.928218365E-1,1.131558724E1
1.204405202E0,8.076972961E0,-7.780262947E0,-5.742774606E-1,1.122941576E1
1.206603149E0,8.009973526E0,-7.737192154E0,-5.754738450E-1,1.115145679E1
1.208793436E0,7.919644833E0,-7.708477974E0,-5.617151260E-1,1.106602597E1
1.210966613E0,7.847859859E0,-7.670193195E0,-5.575276613E-1,1.098779346E1
1.213183775E0,7.776075363E0,-7.631309509E0,-5.724828243E-1,1.091017733E1
1.215387338E0,7.704888821E0,-7.603193760E0,-6.161518097E-1,1.084220965E1
1.217589700E0,7.618747234E0,-7.573882103E0,-5.694918036E-1,1.075794220E1
1.219781677E0,7.537391186E0,-7.535596848E0,-5.748756528E-1,1.067370450E1
1.221975535E0,7.456035137E0,-7.516454220E0,-5.802595019E-1,1.060312431E1
1.224171854E0,7.394420147E0,-7.477570534E0,-5.569294691E-1,1.053098670E1
1.226369232E0,7.327421188E0,-7.439285755E0,-5.670989752E-1,1.045732638E1
1.228558318E0,7.250850677E0,-7.405786037E0,-5.635097623E-1,1.037969391E1
1.230730661E0,7.169494629E0,-7.381857872E0,-5.545366406E-1,1.030538644E1
1.232933582E0,7.112665176E0,-7.353144169E0,-5.599204898E-1,1.024559642E1
1.235152435E0,7.050451756E0,-7.328617573E0,-5.461617708E-1,1.018409535E1
1.237348134E0,6.945167542E0,-7.319046497E0,-5.371887088E-1,1.010407668E1
1.239524627E0,6.839883327E0,-7.261618614E0,-5.479564071E-1,9.990763988E0
1.241741455E0,6.744768620E0,-7.228118896E0,-5.485545993E-1,9.901440232E0
1.243932555E0,6.649055958E0,-7.184450150E0,-5.497509837E-1,9.804514023E0
1.246118702E0,6.558128834E0,-7.131807804E0,-5.790630579E-1,9.706031649E0
1.248330586E0,6.477370739E0,-7.103094101E0,-5.994020700E-1,9.631695611E0
1.250524058E0,6.381658077E0,-7.045666218E0,-5.856433511E-1,9.524177151E0
1.252722453E0,6.295516491E0,-7.007380962E0,-5.629115105E-1,9.436831312E0
1.254917673E0,6.224329948E0,-6.987640381E0,-5.635097623E-1,9.374803713E0
1.257114308E0,6.147759438E0,-6.954140663E0,-5.353940725E-1,9.297400996E0
1.259311686E0,6.075974941E0,-6.911069870E0,-5.359922647E-1,9.217789645E0
1.261507181E0,5.985047817E0,-6.886543751E0,-4.887340367E-1,9.136965753E0
1.263701751E0,5.909075737E0,-6.853044033E0,-5.042873621E-1,9.062874507E0
1.265895497E0,5.822933674E0,-6.809973240E0,-5.096712112E-1,8.974522653E0
1.268094390E0,5.736792088E0,-6.771090031E0,-4.863412082E-1,8.887911534E0
1.270290862E0,5.646463394E0,-6.728019238E0,-4.827519655E-1,8.796694901E0
1.272488525E0,5.536393166E0,-6.680162430E0,-5.120640397E-1,8.691284655E0
1.274683085E0,5.455037594E0,-6.651448727E0,-5.419743061E-1,8.619335326E0
1.276874085E0,5.350351334E0,-6.627520561E0,-5.377869010E-1,8.534606197E0
1.279053741E0,5.259424210E0,-6.584449768E0,-5.676971674E-1,8.446230037E0
1.281272328E0,5.149354458E0,-6.531209469E0,-5.635097623E-1,8.336071719E0
1.283472299E0,5.059025288E0,-6.507879257E0,-5.982056856E-1,8.264628203E0
1.285682697E0,4.987240791E0,-6.464808464E0,-6.514459848E-1,8.190891347E0
1.287860289E0,4.905884743E0,-6.440880299E0,-6.568298340E-1,8.123057895E0
1.290055958E0,4.829912663E0,-6.426523209E0,-6.861419082E-1,8.068398081E0
1.292248932E0,4.743771076E0,-6.407381058E0,-7.393822074E-1,8.006533713E0
1.294448597E0,4.681557655E0,-6.407381058E0,-7.639086246E-1,7.972143406E0
1.296644947E0,4.610371113E0,-6.383452415E0,-7.980063558E-1,7.914594158E0
1.298837635E0,4.524229527E0,-6.388238430E0,-8.081758618E-1,7.869650009E0
1.301038320E0,4.452444553E0,-6.373881340E0,-8.231309652E-1,7.818450641E0
1.303232991E0,4.390231133E0,-6.388238430E0,-8.380861282E-1,7.796544619E0
1.305430419E0,4.289732933E0,-6.388238430E0,-8.578268886E-1,7.742561969E0
1.307624999E0,4.218546391E0,-6.382854462E0,-8.632107973E-1,7.699486841E0
1.309817850E0,4.146761417E0,-6.401997089E0,-8.925228715E-1,7.679700128E0
1.312002105E0,4.055834293E0,-6.387639999E0,-9.218349457E-1,7.622435060E0
1.314208841E0,3.979264021E0,-6.382854462E0,-9.224331379E-1,7.578011357E0
1.316380177E0,3.898506403E0,-6.373282909E0,-9.517452121E-1,7.531461091E0
1.318582406E0,3.836292982E0,-6.373282909E0,-9.714859724E-1,7.501977331E0
1.320773751E0,3.759722471E0,-6.363711834E0,-9.960124493E-1,7.458175525E0
1.322965096E0,3.687937975E0,-6.344569206E0,-1.025324464E0,7.409840428E0
1.325156441E0,3.625724554E0,-6.354140759E0,-1.040279627E0,7.389395444E0
1.327347785E0,3.578466177E0,-6.339783669E0,-1.040279627E0,7.353941722E0
1.329539130E0,3.516252756E0,-6.330212116E0,-1.069591761E0,7.319811843E0
1.331730475E0,3.468396425E0,-6.330212116E0,-1.103689432E0,7.302019554E0
1.333921819E0,3.420539856E0,-6.315855503E0,-1.123430252E0,7.269953175E0
1.336151040E0,3.387040377E0,-6.306283951E0,-1.147358418E0,7.249668345E0
1.338340626E0,3.353540897E0,-6.315855503E0,-1.166501045E0,7.245480797E0
1.340543396E0,3.320639610E0,-6.311069489E0,-1.181456208E0,7.228560319E0
1.342738179E0,3.306282759E0,-6.339783669E0,-1.176670551E0,7.246303625E0
1.344934214E0,3.267997503E0,-6.368497372E0,-1.167099237E0,7.252564173E0
1.347131001E0,3.224926710E0,-6.406782627E0,-1.162313581E0,7.266222456E0
1.349328277E0,3.196212769E0,-6.434898376E0,-1.134197950E0,7.273932785E0
1.351523671E0,3.157329559E0,-6.487540245E0,-1.119840980E0,7.301434941E0
1.353721557E0,3.138186932E0,-6.530611038E0,-1.095912814E0,7.327900289E0
1.355920959E0,3.090330362E0,-6.568298340E0,-1.057627559E0,7.335615917E0
1.358111856E0,3.090330362E0,-6.635297298E0,-1.000199914E0,7.387672966E0
1.360308125E0,3.095116138E0,-6.711269379E0,-9.373882413E-1,7.449803843E0
1.362502878E0,3.099303484E0,-6.787241459E0,-8.650053740E-1,7.511362260E0
1.364700490E0,3.099303484E0,-6.863213539E0,-7.549355626E-1,7.568309578E0
1.366902760E0,3.127419233E0,-6.953542709E0,-6.251249313E-1,7.650051533E0
1.369125579E0,3.136990547E0,-7.043871880E0,-5.240281820E-1,7.728612184E0
1.371315185E0,3.170490026E0,-7.115656376E0,-4.755735099E-1,7.804533479E0
1.373492218E0,3.198605776E0,-7.172485828E0,-3.846462369E-1,7.862797504E0
1.375703836E0,3.236890793E0,-7.244270325E0,-3.457628787E-1,7.942069410E0
1.377895609E0,3.265604734E0,-7.286743164E0,-2.829512656E-1,7.990047662E0
1.380109873E0,3.284149170E0,-7.338787079E0,-2.063809484E-1,8.042762253E0
1.382291869E0,3.312862873E0,-7.395616531E0,-6.699903309E-2,8.103992421E0
1.384481862E0,3.374478102E0,-7.452445984E0,5.324030295E-2,8.181007770E0
1.386685861E0,3.479762316E0,-7.523632526E0,1.884347796E-1,8.291519754E0
1.388884328E0,3.598805189E0,-7.614559650E0,2.470589429E-1,8.425791095E0
1.391082722E0,3.698705673E0,-7.705487251E0,2.673979402E-1,8.551401002E0
1.393275553E0,3.803989887E0,-7.767700672E0,2.973082066E-1,8.654242021E0
1.395471282E0,3.885345697E0,-7.820342541E0,2.979064286E-1,8.737414771E0
1.397665660E0,3.975674868E0,-7.840083599E0,3.038884699E-1,8.795751798E0
1.399858408E0,4.037888050E0,-7.859225750E0,3.230310678E-1,8.841737293E0
1.402060933E0,4.104887009E0,-7.868797302E0,3.044866920E-1,8.880359254E0
1.404250539E0,4.229313850E0,-7.868797302E0,3.296113312E-1,8.939446865E0
1.406430419E0,4.300500393E0,-7.888537884E0,2.919243574E-1,8.989357786E0
1.408648702E0,4.391427994E0,-7.893323898E0,2.255235314E-1,9.035489076E0
1.410838856E0,4.491926193E0,-7.879564762E0,1.591227055E-1,9.071398007E0
1.413023854E0,4.568496704E0,-7.880163193E0,1.357926875E-1,9.109696687E0
1.415236734E0,4.645066738E0,-7.837690353E0,7.417750359E-2,9.111066753E0
1.417426971E0,4.721637249E0,-7.794619560E0,3.170489892E-2,9.113229812E0
1.419611399E0,4.745565414E0,-7.742575645E0,-5.922235921E-2,9.081375227E0
1.421825551E0,4.769493580E0,-7.700103283E0,-8.315058798E-2,9.057956370E0
1.424022694E0,4.798805714E0,-7.609176159E0,-1.501496136E-1,8.997257527E0
1.426223876E0,4.817948341E0,-7.533204079E0,-2.177468538E-1,8.944786392E0
1.428407511E0,4.837090969E0,-7.433303356E0,-2.943171859E-1,8.873447494E0
1.430578714E0,4.928616524E0,-7.314260483E0,-3.852444589E-1,8.828254671E0
1.432784128E0,5.038686275E0,-7.167101860E0,-4.803591371E-1,8.774192462E0
1.435002340E0,5.139184952E0,-7.009773731E0,-5.569294691E-1,8.709668201E0
1.437199107E0,5.258825779E0,-6.885945320E0,-6.472585201E-1,8.688523184E0
1.439374632E0,5.422136307E0,-6.734001160E0,-7.280163169E-1,8.676193953E0
1.441591826E0,5.570491314E0,-6.586244106E0,-8.285148144E-1,8.665761461E0
1.443779988E0,5.848058701E0,-6.335596085E0,-1.248455167E0,8.711957795E0
1.445964071E0,5.996413708E0,-6.278766632E0,-1.319043517E0,8.781785899E0
1.448178802E0,6.034698486E0,-6.344569206E0,-1.103091240E0,8.825415260E0
1.450371714E0,6.105885029E0,-6.410371780E0,-8.632107973E-1,8.894932896E0
1.452563781E0,6.196214199E0,-6.510272026E0,-6.658028960E-1,9.012214253E0
1.454768340E0,6.305685997E0,-6.638886452E0,-5.066801906E-1,9.170235222E0
1.456964070E0,6.400800705E0,-6.752545357E0,-3.379862010E-1,9.310282119E0
1.459164489E0,6.519843578E0,-6.876374245E0,-1.836491376E-1,9.477690122E0
1.461356170E0,6.644270420E0,-6.985845566E0,-3.828516230E-2,9.641049395E0
1.463553954E0,6.768098831E0,-7.090531826E0,9.212367237E-2,9.802616494E0
1.465755534E0,6.896713257E0,-7.181458950E0,1.938186288E-1,9.958693291E0
1.467944234E0,7.035496712E0,-7.238886833E0,2.380858511E-1,1.009734527E1
1.470141235E0,7.168896675E0,-7.281957626E0,2.632105052E-1,1.022199913E1
1.472336446E0,7.293323517E0,-7.305885792E0,2.644068897E-1,1.032658928E1
1.474533742E0,7.378866673E0,-7.339385033E0,2.793620527E-1,1.041116176E1
1.476724884E0,7.488936901E0,-7.354340553E0,2.135594189E-1,1.049838600E1
1.478899494E0,7.594220638E0,-7.393223763E0,1.423729509E-1,1.059963277E1
1.481121510E0,7.651648521E0,-7.441678524E0,9.032905847E-2,1.067400879E1
1.483311004E0,7.709076405E0,-7.499105930E0,5.982056609E-4,1.075483376E1
1.485498087E0,7.747361660E0,-7.566703320E0,-8.494520187E-2,1.082976581E1
1.487710428E0,7.770691395E0,-7.643871784E0,-1.800599098E-1,1.090159815E1
1.489907155E0,7.808976650E0,-7.711469173E0,-2.614158690E-1,1.097794204E1
1.492107544E0,7.837690353E0,-7.769495010E0,-3.565305769E-1,1.104180949E1
1.494299124E0,7.866404533E0,-7.846663475E0,-4.660021961E-1,1.112059378E1
1.496488077E0,7.895118237E0,-7.899305820E0,-5.371887088E-1,1.118125646E1
1.498658793E0,7.957331657E0,-7.981259823E0,-6.035895348E-1,1.128645010E1
1.500862152E0,8.005187988E0,-8.072785378E0,-7.124629617E-1,1.139124673E1
1.503082894E0,8.062616348E0,-8.154739380E0,-7.980063558E-1,1.149531952E1
1.505286010E0,8.133802414E0,-8.264809608E0,-8.542376757E-1,1.162736176E1
1.507481974E0,8.229515076E0,-8.385048866E0,-9.104689956E-1,1.178401106E1
1.509669739E0,8.310273170E0,-8.485547066E0,-9.619147182E-1,1.191597369E1
1.511861103E0,8.425128937E0,-8.596215248E0,-1.022931695E0,1.207990494E1
1.514057322E0,8.496912956E0,-8.682954788E0,-1.065404296E0,1.219534009E1
1.516235026E0,8.563314438E0,-8.769096375E0,-1.102493048E0,1.230621373E1
1.518457642E0,8.620741844E0,-8.845666885E0,-1.039681435E0,1.239531968E1
1.520652313E0,8.730213165E0,-8.916254997E0,-8.709874153E-1,1.250899053E1
1.522855051E0,8.825327873E0,-9.029914856E0,-6.113662124E-1,1.264118440E1
1.525045379E0,8.992227554E0,-9.110074043E0,-2.608176768E-1,1.280318833E1
1.527240843E0,9.154341698E0,-9.160921097E0,1.190429255E-1,1.295139446E1
1.529437723E0,9.311669350E0,-9.216554642E0,4.648058116E-1,1.310984782E1
1.531626465E0,9.440283775E0,-9.272786140E0,7.435696125E-1,1.325354354E1
1.533803437E0,9.497113228E0,-9.310472488E0,8.398807645E-1,1.332611936E1
1.536024414E0,9.501898766E0,-9.349356651E0,7.345965505E-1,1.335051243E1
1.538214670E0,9.511469841E0,-9.398408890E0,5.246263742E-1,1.338183026E1
1.540398396E0,9.531210899E0,-9.428318977E0,2.853440940E-1,1.340964583E1
1.542615987E0,9.602995872E0,-9.444471359E0,4.187439755E-2,1.346912478E1
1.544813944E0,9.722636223E0,-9.459425926E0,-1.148554832E-1,1.356552932E1
1.547014251E0,9.885348320E0,-9.446265221E0,-2.333002090E-1,1.367503079E1
1.549201549E0,1.005763149E1,-9.418149948E0,-3.230310678E-1,1.378266479E1
1.551398193E0,1.022034359E1,-9.375677109E0,-3.888336718E-1,1.387479499E1
1.553593668E0,1.034477043E1,-9.328418732E0,-4.265206456E-1,1.393612540E1
1.555788950E0,1.043988514E1,-9.295517921E0,-4.259224236E-1,1.398496568E1
1.557984232E0,1.049731255E1,-9.238089561E0,-4.019941986E-1,1.398919114E1
1.560179513E0,1.057388306E1,-9.180064201E0,-3.248256743E-1,1.400664461E1
1.562378905E0,1.062173939E1,-9.151350021E0,-2.291127741E-1,1.402216273E1
1.564569743E0,1.068395329E1,-9.102895737E0,-1.471585929E-1,1.403678112E1
1.566745158E0,1.075573826E1,-9.064610481E0,-7.537391037E-2,1.406622728E1
1.568967081E0,1.085563850E1,-9.055039406E0,-2.213360928E-2,1.413644637E1
1.571163492E0,1.097049332E1,-9.040681839E0,-6.580262445E-3,1.421568482E1
1.573366414E0,1.108534908E1,-9.059824944E0,3.589233849E-3,1.431661291E1
1.575556732E0,1.122353458E1,-9.084351540E0,-1.435693540E-2,1.443929976E1
1.577747212E0,1.133839035E1,-9.122636795E0,-4.187439755E-2,1.455277813E1
1.579924764E0,1.142453194E1,-9.195018768E0,-5.503492057E-2,1.466531039E1
1.582145081E0,1.149093246E1,-9.228518486E0,-4.965107143E-2,1.473803065E1
1.584340138E0,1.152921772E1,-9.252447128E0,-5.443671346E-2,1.478288208E1
1.586542226E0,1.153878880E1,-9.262018204E0,-5.383851007E-2,1.479633491E1
1.588732930E0,1.154357433E1,-9.276374817E0,-4.905286431E-2,1.480903928E1
1.590929474E0,1.155314636E1,-9.247661591E0,-2.512463741E-2,1.479848192E1
1.593125325E0,1.156750298E1,-9.242277145E0,3.589233849E-3,1.480631030E1
1.595322072E0,1.158664513E1,-9.218349457E0,4.187439755E-2,1.480641974E1
1.597518768E0,1.161057377E1,-9.189635277E0,6.101697683E-2,1.480738136E1
1.599719430E0,1.162971592E1,-9.151350021E0,7.058826834E-2,1.479873246E1
1.601909240E0,1.166800117E1,-9.117850304E0,9.930214286E-2,1.480835259E1
1.604111806E0,1.173021507E1,-9.089137077E0,1.429711580E-1,1.484017517E1
1.606325246E0,1.177807140E1,-9.036494255E0,1.764706671E-1,1.484629032E1
1.608497761E0,1.180678558E1,-8.988039970E0,2.530409992E-1,1.484079102E1
1.610688385E0,1.186361504E1,-8.935398102E0,3.104687333E-1,1.485540615E1
1.612859935E0,1.190190029E1,-8.882756233E0,3.631108403E-1,1.485565341E1
1.615087036E0,1.194018459E1,-8.829515457E0,4.253242314E-1,1.485628662E1
1.617284891E0,1.198804188E1,-8.772088051E0,4.450650215E-1,1.486138485E1
1.619485961E0,1.203589821E1,-8.719446182E0,4.785645306E-1,1.487012480E1
1.621675333E0,1.205982590E1,-8.633303642E0,5.168496966E-1,1.484050087E1
1.623870533E0,1.210289669E1,-8.566305161E0,5.312066078E-1,1.483724613E1
1.626066568E0,1.215075302E1,-8.499904633E0,4.929214716E-1,1.483685106E1
1.628257232E0,1.216511059E1,-8.432905197E0,4.971089065E-1,1.481050043E1
1.630429443E0,1.219442272E1,-8.370692253E0,4.779663086E-1,1.479867853E1
1.632632923E0,1.221835041E1,-8.337790489E0,4.546363056E-1,1.479910576E1
1.634852854E0,1.223749352E1,-8.280363083E0,4.540380836E-1,1.478265236E1
1.637054270E0,1.221835041E1,-8.189435959E0,4.725824594E-1,1.471659887E1
1.639249797E0,1.219920826E1,-8.132007599E0,4.773681164E-1,1.466895054E1
1.641440216E0,1.219920826E1,-8.093722343E0,4.677968323E-1,1.464745225E1
1.643631063E0,1.220399380E1,-8.074580193E0,4.007977843E-1,1.463888482E1
1.645810770E0,1.223270798E1,-8.075178146E0,3.768695593E-1,1.466252629E1
1.648029835E0,1.227577877E1,-8.021938324E0,4.438686073E-1,1.467117099E1
1.650225443E0,1.229492092E1,-7.878368378E0,5.533402562E-1,1.461300634E1
1.652427429E0,1.226202011E1,-7.724629879E0,6.053841114E-1,1.450494860E1
1.654617533E0,1.220937729E1,-7.628916740E0,6.137589812E-1,1.440992590E1
1.656813476E0,1.215194988E1,-7.566703320E0,6.083751321E-1,1.432811939E1
1.659009349E0,1.210947704E1,-7.461419106E0,6.269195080E-1,1.423745895E1
1.661205475E0,1.205683517E1,-7.336992264E0,5.922235847E-1,1.412619760E1
1.663398773E0,1.197607708E1,-7.193423271E0,5.718846321E-1,1.398208899E1
1.665579833E0,1.187079334E1,-7.025925636E0,5.994020700E-1,1.380719553E1
1.667768625E0,1.178046417E1,-6.863213539E0,6.173482537E-1,1.364786266E1
1.669991526E0,1.169492054E1,-6.719644070E0,6.203392744E-1,1.350220736E1
1.672190348E0,1.163270760E1,-6.623931408E0,5.718846321E-1,1.339863446E1
1.674390371E0,1.158544922E1,-6.571887493E0,4.372883439E-1,1.332679856E1
1.676577281E0,1.155673504E1,-6.538986206E0,2.889333367E-1,1.328156421E1
1.678750295E0,1.149452209E1,-6.515655994E0,1.878365725E-1,1.321412478E1
1.680965148E0,1.138504982E1,-6.463014126E0,1.196411327E-1,1.309214364E1
1.683134938E0,1.127019501E1,-6.415157318E0,7.537391037E-2,1.296831601E1
1.685344319E0,1.117508030E1,-6.372684956E0,4.127619043E-2,1.286449521E1
1.687561738E0,1.109372425E1,-6.333801746E0,3.050848842E-2,1.277453299E1
1.689761495E0,1.100339508E1,-6.295516491E0,1.196411322E-3,1.267707508E1
1.691957875E0,1.092682457E1,-6.324828625E0,-6.161518395E-2,1.262548014E1
1.694147227E0,1.087418270E1,-6.406782627E0,-2.003988922E-1,1.262279180E1
1.696344105E0,1.081196880E1,-6.468996048E0,-2.769692242E-1,1.260251131E1
1.698534606E0,1.071147060E1,-6.545566559E0,-3.684946895E-1,1.255849642E1
1.700712962E0,1.062592697E1,-6.627520561E0,-4.307080805E-1,1.253075665E1
1.702933228E0,1.051585770E1,-6.727420807E0,-4.743770957E-1,1.249265734E1
1.705123494E0,1.041057301E1,-6.876374245E0,-5.461617708E-1,1.248850855E1
1.707306620E0,1.028136063E1,-7.024729252E0,-6.520441771E-1,1.246909616E1
1.709524475E0,1.010429192E1,-7.134799004E0,-7.292127013E-1,1.239087661E1
1.711733652E0,9.917651176E0,-7.210771084E0,-7.399803996E-1,1.228424175E1
1.713912750E0,9.760323524E0,-7.263412952E0,-7.268198729E-1,1.218808230E1
1.716084370E0,9.626325607E0,-7.315456867E0,-6.891329288E-1,1.211020058E1
1.718302714E0,9.540184021E0,-7.386643410E0,-6.514459848E-1,1.208312848E1
1.720502349E0,9.468399048E0,-7.463213921E0,-6.418746710E-1,1.207319948E1
1.722705149E0,9.405587196E0,-7.543971539E0,-5.748756528E-1,1.207091791E1
1.724893636E0,9.343374252E0,-7.648657799E0,-5.365904570E-1,1.208670914E1
1.727089935E0,9.305088997E0,-7.753942013E0,-5.030909777E-1,1.212276365E1
1.729285918E0,9.247661591E0,-7.858627796E0,-4.743770957E-1,1.214505288E1
1.731476074E0,9.218947411E0,-7.963313580E0,-3.786641955E-1,1.218797527E1
1.733654175E0,9.175278664E0,-8.048856735E0,-3.212364316E-1,1.220954652E1
1.735876984E0,9.151350021E0,-8.115258217E0,-2.542374134E-1,1.223393885E1
1.738065114E0,9.141778946E0,-8.172685623E0,-2.009970993E-1,1.226398436E1
1.740248972E0,9.141778946E0,-8.225327492E0,-1.770688742E-1,1.229875961E1
1.742458903E0,9.136993408E0,-8.263014793E0,-1.244267747E-1,1.231980292E1
1.744649800E0,9.141180992E0,-8.286943436E0,-6.221338734E-2,1.233849634E1
1.746888926E0,9.145966530E0,-8.271987915E0,1.435693540E-2,1.233185687E1
1.749051696E0,9.117252350E0,-8.280961037E0,7.178468257E-2,1.231680799E1
1.751252615E0,9.069396019E0,-8.266005516E0,1.716850251E-1,1.227233747E1
1.753438059E0,9.026325226E0,-8.231907845E0,2.620140910E-1,1.221914503E1
1.755640726E0,8.983254433E0,-8.184051514E0,3.475574851E-1,1.215723470E1
1.757838389E0,8.940183640E0,-8.126026154E0,4.283152521E-1,1.208894696E1
1.760032053E0,8.897112846E0,-8.067999840E0,4.761717021E-1,1.201989925E1
1.762228698E0,8.864211082E0,-7.996214867E0,5.377869010E-1,1.195001695E1
1.764426850E0,8.845068932E0,-7.942974567E0,6.233302951E-1,1.190439541E1
1.766632131E0,8.840283394E0,-7.841877937E0,7.232306600E-1,1.183928725E1
1.768817199E0,8.811569214E0,-7.765307903E0,7.944171429E-1,1.177178225E1
1.771014251E0,8.787641525E0,-7.678567886E0,8.991031051E-1,1.170433402E1
1.773206889E0,8.778069496E0,-7.577471256E0,9.798609018E-1,1.163755568E1
1.775406250E0,8.768498421E0,-7.510472298E0,1.042074203E0,1.159222487E1
1.777595499E0,8.768498421E0,-7.409375191E0,1.127617717E0,1.153503043E1
1.779772624E0,8.763712883E0,-7.313662529E0,1.184447169E0,1.147585457E1
1.781993693E0,8.782855988E0,-7.208378315E0,1.227517962E0,1.142830161E1
1.784185323E0,8.788239479E0,-7.117451191E0,1.236491084E0,1.137629882E1
1.786375050E0,8.807381630E0,-6.997809887E0,1.260419369E0,1.131936268E1
1.788577494E0,8.836095810E0,-6.897311211E0,1.259821177E0,1.127992201E1
1.790753622E0,8.836095810E0,-6.772884369E0,1.254437327E0,1.120366747E1
1.792980153E0,8.860622406E0,-6.681957245E0,1.254437327E0,1.116838373E1
1.795170410E0,8.855836868E0,-6.572485447E0,1.229910851E0,1.109667032E1
1.797366841E0,8.874979019E0,-6.486343861E0,1.196411371E0,1.105754536E1
1.799536896E0,8.898907661E0,-6.390631199E0,1.205384374E0,1.102196335E1
1.801759358E0,8.899505615E0,-6.304489613E0,1.176670551E0,1.096960998E1
1.803955291E0,8.909076691E0,-6.223731518E0,1.123430252E0,1.092559275E1
1.806158783E0,8.937790871E0,-6.132804394E0,1.113858938E0,1.089660851E1
1.808347900E0,8.947361946E0,-6.071189404E0,1.089930773E0,1.086750089E1
1.810544616E0,8.980861664E0,-5.989833355E0,1.061216831E0,1.084712685E1
1.812739532E0,8.991030693E0,-5.928217888E0,1.012762189E0,1.081702766E1
1.814935984E0,9.024530411E0,-5.861218929E0,9.792626500E-1,1.080532238E1
1.817132172E0,9.019744873E0,-5.794818401E0,9.122636318E-1,1.075955124E1
1.819328308E0,9.019744873E0,-5.742176056E0,8.548358679E-1,1.072656179E1
1.821525044E0,9.043673515E0,-5.666203976E0,8.207381964E-1,1.070362132E1
1.823721843E0,9.058628082E0,-5.623731613E0,7.298108935E-1,1.068726925E1
1.825911173E0,9.058628082E0,-5.566303730E0,6.819544435E-1,1.065399183E1
1.828090536E0,9.072985649E0,-5.519045353E0,6.197410822E-1,1.063781036E1
1.830310466E0,9.058628082E0,-5.495117188E0,5.569294691E-1,1.060967606E1
1.832516500E0,9.068798065E0,-5.443073273E0,5.042873621E-1,1.058888336E1
1.834698506E0,9.068798065E0,-5.395216942E0,4.803591371E-1,1.056324804E1
1.836899932E0,9.078369141E0,-5.347958565E0,4.037888348E-1,1.054421607E1
1.839090484E0,9.064012527E0,-5.319244862E0,3.601198196E-1,1.051572039E1
1.841290984E0,9.083154678E0,-5.291129112E0,3.314059377E-1,1.051710873E1
1.843482493E0,9.068798065E0,-5.243272781E0,2.979064286E-1,1.047968301E1
1.845662944E0,9.078967094E0,-5.204987526E0,2.596212626E-1,1.046837819E1
1.847878357E0,9.093324661E0,-5.157729149E0,2.213360965E-1,1.045656316E1
1.850074126E0,9.093324661E0,-5.090730190E0,2.111666054E-1,1.042346769E1
1.852275563E0,9.088538170E0,-5.066802025E0,1.728814393E-1,1.040691582E1
1.854466970E0,9.107681274E0,-5.009374142E0,1.776670814E-1,1.039592483E1
1.856663066E0,9.122037888E0,-4.971687317E0,1.537388563E-1,1.039003781E1
1.858859893E0,9.131608963E0,-4.928616524E0,1.537388563E-1,1.037791784E1
1.861055572E0,9.141180992E0,-4.899902344E0,1.387837082E-1,1.037253555E1
1.863252522E0,9.155537605E0,-4.866403103E0,1.435693651E-1,1.036949180E1
1.865441040E0,9.151350021E0,-4.818546772E0,1.627119333E-1,1.034369737E1
1.867618957E0,9.151350021E0,-4.780261517E0,1.674975902E-1,1.032599452E1
1.869839559E0,9.165707588E0,-4.756333351E0,1.770688742E-1,1.032783888E1
1.872036825E0,9.165707588E0,-4.713262558E0,1.956132501E-1,1.030840939E1
1.874232747E0,9.175278664E0,-4.679762840E0,2.434697002E-1,1.030267908E1
1.876400726E0,9.189635277E0,-4.626522541E0,2.626122832E-1,1.029189354E1
1.878605164E0,9.189635277E0,-4.583451748E0,2.817548811E-1,1.027311113E1
1.880821920E0,9.199206352E0,-4.535595417E0,3.200400174E-1,1.026155197E1
1.883022786E0,9.194420815E0,-4.530809879E0,3.433700502E-1,1.025590148E1
1.885217875E0,9.180064201E0,-4.492524624E0,3.768695593E-1,1.022733528E1
1.887408692E0,9.208778381E0,-4.477569580E0,4.055834413E-1,1.024766932E1
1.889605041E0,9.218349457E0,-4.453640938E0,4.295116663E-1,1.024682217E1
1.891801666E0,9.242277145E0,-4.434498787E0,4.486542344E-1,1.026088480E1
1.893998902E0,9.275776863E0,-4.411168575E0,4.205385745E-1,1.027984909E1
1.896194438E0,9.318847656E0,-4.406383038E0,4.348955154E-1,1.031728003E1
1.898385538E0,9.356534958E0,-4.382454872E0,4.683950245E-1,1.034263269E1
1.900560292E0,9.390034676E0,-4.357928276E0,5.312066078E-1,1.036563893E1
1.902781789E0,9.404391289E0,-4.300500393E0,5.880361795E-1,1.035773458E1
1.904977722E0,9.447462082E0,-4.286143780E0,6.173482537E-1,1.039262658E1
1.907181010E0,9.485747337E0,-4.247858524E0,6.364908218E-1,1.041291627E1
1.909364451E0,9.519247055E0,-4.195216179E0,6.412764788E-1,1.042243440E1
1.911537893E0,9.552745819E0,-4.161716938E0,6.604190469E-1,1.044083301E1
1.913746002E0,9.600603104E0,-4.113860130E0,6.897311211E-1,1.046762409E1
1.915960083E0,9.648459435E0,-4.070789337E0,6.610172391E-1,1.049290423E1
1.918161509E0,9.715457916E0,-4.037290096E0,6.568298340E-1,1.054140689E1
1.920355347E0,9.758528709E0,-4.013959885E0,6.424728632E-1,1.057135412E1
1.922547007E0,9.825528145E0,-3.956532240E0,6.711867452E-1,1.061346514E1
1.924743347E0,9.878170013E0,-3.903890133E0,7.148557901E-1,1.064563853E1
1.926939870E0,9.940383911E0,-3.851248026E0,7.292127013E-1,1.068527467E1
1.929137064E0,1.000259686E1,-3.836891174E0,7.728816867E-1,1.074109044E1
1.931329895E0,1.006959629E1,-3.793820381E0,8.111668825E-1,1.079109977E1
1.933519338E0,1.011685371E1,-3.789034605E0,8.309076428E-1,1.083503206E1
1.935724040E0,1.015992451E1,-3.765106440E0,8.404789567E-1,1.086768132E1
1.937915649E0,1.020778179E1,-3.716651678E0,8.931210637E-1,1.089999881E1
1.940099090E0,1.024606609E1,-3.644867182E0,9.266205430E-1,1.091446530E1
1.942312521E0,1.027956581E1,-3.630510092E0,9.750752449E-1,1.094535740E1
1.944502686E0,1.030349445E1,-3.587439299E0,9.846464992E-1,1.095450809E1
1.946685242E0,1.033699417E1,-3.549154282E0,9.894321561E-1,1.097401114E1
1.948902109E0,1.038485050E1,-3.520440340E0,9.798609018E-1,1.100903027E1
1.951093841E0,1.041835022E1,-3.501895905E0,9.708877802E-1,1.103394396E1
1.953278290E0,1.044227791E1,-3.506681681E0,9.469595551E-1,1.105598104E1
1.955489867E0,1.047577763E1,-3.482753277E0,9.517452121E-1,1.108049215E1
1.957685628E0,1.048534870E1,-3.492324591E0,9.278169870E-1,1.109052356E1
1.959887258E0,1.048534870E1,-3.501895905E0,9.134600163E-1,1.109234968E1
1.962078542E0,1.051884842E1,-3.540181160E0,9.236295223E-1,1.113697204E1
1.964278513E0,1.051406288E1,-3.574278831E0,8.949156404E-1,1.114099912E1
1.966485585E0,1.049970531E1,-3.592823267E0,8.949156404E-1,1.113342107E1
1.968668843E0,1.049013424E1,-3.650250912E0,8.955138922E-1,1.114312314E1
1.970862518E0,1.046620655E1,-3.698107481E0,9.050851464E-1,1.113717458E1
1.973055104E0,1.043749237E1,-3.760320902E0,9.194421172E-1,1.113223401E1
1.975254455E0,1.040399265E1,-3.808177233E0,8.907282352E-1,1.111479526E1
1.977445556E0,1.040877819E1,-3.875176191E0,8.668000102E-1,1.114051149E1
1.979625457E0,1.038425159E1,-3.951746702E0,8.907282352E-1,1.114640659E1
1.981844574E0,1.036510944E1,-4.018745422E0,8.769695163E-1,1.115145211E1
1.984033356E0,1.033639526E1,-4.095315933E0,8.673982024E-1,1.115190832E1
1.986216766E0,1.030768204E1,-4.180859566E0,8.578268886E-1,1.115633285E1
1.988425425E0,1.028853893E1,-4.247858524E0,8.386843204E-1,1.116251436E1
1.990602884E0,1.025503922E1,-4.310071945E0,8.147560954E-1,1.115376066E1
1.992830383E0,1.022632599E1,-4.392025948E0,7.860422134E-1,1.115730691E1
1.995020344E0,1.019282627E1,-4.487739086E0,7.627122402E-1,1.116311961E1
1.997218312E0,1.015454102E1,-4.549354076E0,7.435696125E-1,1.115187076E1
1.999392487E0,1.012104130E1,-4.645066738E0,7.292127013E-1,1.115992263E1
2.001609253E0,1.008275604E1,-4.731806755E0,6.765705943E-1,1.115839201E1
2.003805877E0,1.005823040E1,-4.813162804E0,6.430711150E-1,1.116906780E1
2.006005859E0,1.003430176E1,-4.908875465E0,6.245267391E-1,1.118813227E1
2.008197154E0,1.000080204E1,-4.985445976E0,5.910272002E-1,1.119017543E1
2.010387216E0,9.991230965E0,-5.090730190E0,5.862415433E-1,1.122870915E1
2.012564799E0,9.962516785E0,-5.181657314E0,5.629115105E-1,1.124358406E1
2.014780517E0,9.929018021E0,-5.253442287E0,5.437689424E-1,1.124632115E1
2.016982890E0,9.919445992E0,-5.373083115E0,5.300102234E-1,1.129364165E1
2.019184102E0,9.899705887E0,-5.468796253E0,4.821537733E-1,1.132008752E1
2.021376526E0,9.890133858E0,-5.554937840E0,4.677968323E-1,1.135301352E1
2.023570099E0,9.870991707E0,-5.645864964E0,4.636093974E-1,1.138100181E1
2.025766276E0,9.832706451E0,-5.703292847E0,4.061816335E-1,1.137429774E1
2.027962513E0,9.794421196E0,-5.779862881E0,3.631108403E-1,1.137845996E1
2.030159159E0,9.784850121E0,-5.827719688E0,3.487538993E-1,1.139417561E1
2.032349701E0,9.741779327E0,-5.870790482E0,3.104687333E-1,1.137826156E1
2.034526906E0,9.727422714E0,-5.909075737E0,2.769692242E-1,1.138493042E1
2.036747792E0,9.713065147E0,-5.952146530E0,2.673979402E-1,1.139487536E1
2.038945404E0,9.693922997E0,-5.986244202E0,2.291127741E-1,1.139560246E1
2.041145488E0,9.679565430E0,-6.019743443E0,2.195414752E-1,1.140085508E1
2.043335520E0,9.689137459E0,-6.058028698E0,2.057827413E-1,1.142897384E1
2.045530874E0,9.674779892E0,-6.086742401E0,1.387837082E-1,1.143105682E1
2.047727835E0,9.674779892E0,-6.116054535E0,1.052841991E-1,1.144633451E1
2.049924307E0,9.679565430E0,-6.149554253E0,9.092725813E-2,1.146818522E1
2.052121521E0,9.698708534E0,-6.192625046E0,5.324030295E-2,1.150723193E1
2.054317322E0,9.684351921E0,-6.230910301E0,2.931207791E-2,1.151571858E1
2.056513571E0,9.689137459E0,-6.269195557E0,1.016949583E-2,1.154046364E1
2.058708912E0,9.713065147E0,-6.302694798E0,2.033899166E-2,1.157877411E1
2.060904724E0,9.717850685E0,-6.355337143E0,-8.374879137E-3,1.161150302E1
2.063100789E0,9.717850685E0,-6.399005890E0,-3.708875179E-2,1.163551778E1
2.065290609E0,9.736394882E0,-6.455835342E0,-2.691925503E-2,1.168229087E1
2.067468556E0,9.726823807E0,-6.489933014E0,-5.563312769E-2,1.169330693E1
2.069691314E0,9.731609344E0,-6.547360897E0,-8.853443712E-2,1.172944984E1
2.071884694E0,9.750752449E0,-6.576074600E0,-1.076770201E-1,1.176152732E1
2.074080536E0,9.755537987E0,-6.619145870E0,-1.411765367E-1,1.178997643E1
2.076271017E0,9.784252167E0,-6.638288021E0,-1.453639716E-1,1.182453335E1
2.078448314E0,9.812965393E0,-6.677171707E0,-1.782652885E-1,1.187058088E1
2.080672130E0,9.832108498E0,-6.729813576E0,-1.974078715E-1,1.191636346E1
2.082866526E0,9.836894035E0,-6.739385128E0,-2.309073806E-1,1.192632024E1
2.085069102E0,9.846465111E0,-6.777669907E0,-2.398804724E-1,1.195605400E1
2.087259694E0,9.865608215E0,-6.820741177E0,-2.590230405E-1,1.199665906E1
2.089455292E0,9.874580383E0,-6.859025955E0,-2.584248483E-1,1.202582048E1
2.091652415E0,9.903294563E0,-6.882954121E0,-2.584248483E-1,1.206304622E1
2.093846822E0,9.908080101E0,-6.902096748E0,-2.679961324E-1,1.207811296E1
2.096042919E0,9.936794281E0,-6.921837807E0,-2.721835673E-1,1.211304269E1
2.098232921E0,9.970293999E0,-6.940980434E0,-2.673979402E-1,1.215135686E1
2.100413788E0,9.994221687E0,-6.955337048E0,-2.572284341E-1,1.217897151E1
2.102641520E0,1.001336479E1,-6.984051228E0,-2.715853751E-1,1.221139651E1
2.104829020E0,1.003729248E1,-6.998407841E0,-2.566302419E-1,1.223890566E1
2.107029469E0,1.006122112E1,-7.012764931E0,-2.518445849E-1,1.226664046E1
2.109215709E0,1.009412193E1,-7.046264648E0,-2.416750938E-1,1.231257690E1
2.111412496E0,1.011805058E1,-7.079763889E0,-2.464607358E-1,1.235146741E1
2.113594401E0,1.014676476E1,-7.118049145E0,-2.410768867E-1,1.239683737E1
2.115809193E0,1.016590691E1,-7.156334400E0,-2.219343036E-1,1.243414815E1
2.117998291E0,1.021376324E1,-7.194619656E0,-2.165504545E-1,1.249521531E1
2.120180074E0,1.026580715E1,-7.227520943E0,-1.824527234E-1,1.255615962E1
2.122398102E0,1.033280659E1,-7.280761242E0,-1.914258152E-1,1.264171745E1
2.124593383E0,1.036151981E1,-7.323832035E0,-1.668993831E-1,1.268965972E1
2.126796560E0,1.043330479E1,-7.352545738E0,-1.758724600E-1,1.276497978E1
2.128985362E0,1.048056316E1,-7.414759159E0,-1.561316848E-1,1.283920694E1
2.131182169E0,1.049970531E1,-7.457829952E0,-1.603191197E-1,1.287978034E1
2.133379587E0,1.054277611E1,-7.510472298E0,-1.453639716E-1,1.294520965E1
2.135574117E0,1.058584690E1,-7.572087288E0,-1.112662554E-1,1.301572283E1
2.137770355E0,1.062831974E1,-7.634300709E0,-9.631111473E-2,1.308636709E1
2.139966878E0,1.064267731E1,-7.691728592E0,-9.152546525E-2,1.313155154E1
2.142162395E0,1.068574810E1,-7.787441254E0,-5.742774159E-2,1.322243365E1
2.144353303E0,1.070429230E1,-7.834699631E0,1.495514158E-2,1.326516549E1
2.146528891E0,1.069950676E1,-7.844270706E0,6.281159073E-2,1.326710116E1
2.148751149E0,1.067557812E1,-7.896913052E0,3.409772366E-2,1.327894448E1
2.150942118E0,1.066600704E1,-7.944769382E0,1.495514158E-2,1.329974776E1
2.153126923E0,1.066600704E1,-7.992625713E0,1.076770201E-2,1.332838655E1
2.155339579E0,1.066600704E1,-8.030911446E0,-3.589233849E-3,1.335137662E1
2.157536122E0,1.068514919E1,-8.045268059E0,-1.794617064E-2,1.337531583E1
2.159737304E0,1.068993473E1,-8.054839134E0,1.196411322E-3,1.338488474E1
2.161928691E0,1.072343445E1,-8.083553314E0,3.050848842E-2,1.342895422E1
2.164120656E0,1.075693417E1,-8.136195183E0,1.674975827E-2,1.348738615E1
2.166307892E0,1.078026390E1,-8.207980156E0,1.256231871E-2,1.354936109E1
2.168516001E0,1.080419254E1,-8.294121742E0,7.776673418E-3,1.362068620E1
2.170712311E0,1.082333469E1,-8.380263329E0,-5.982056726E-3,1.368844122E1
2.172911905E0,1.082333469E1,-8.461619377E0,-2.931207791E-2,1.373842915E1
2.175105571E0,1.080419254E1,-8.566903114E0,-4.845465720E-2,1.378857329E1
2.177299480E0,1.077966595E1,-8.653044701E0,-5.264209956E-2,1.382313827E1
2.179491231E0,1.076530933E1,-8.743971825E0,-5.742774159E-2,1.386911051E1
2.181692688E0,1.077488041E1,-8.849256516E0,-8.075776696E-2,1.394323888E1
2.183882701E0,1.077966595E1,-8.921041489E0,-1.232303679E-1,1.399290409E1
2.186060873E0,1.079880905E1,-8.998209953E0,-1.423729509E-1,1.405710957E1
2.188275482E0,1.080299568E1,-9.088538170E0,-1.082752272E-1,1.411800146E1
2.190452800E0,1.083170986E1,-9.169894218E0,-1.028913707E-1,1.419237419E1
2.192681010E0,1.088435173E1,-9.246464729E0,-8.793623000E-2,1.428194508E1
2.194869975E0,1.092203903E1,-9.351749420E0,-1.064806059E-1,1.437906436E1
2.197068166E0,1.098903847E1,-9.447462082E0,-7.657032460E-2,1.449204503E1
2.199234741E0,1.102193928E1,-9.509077072E0,4.366901144E-2,1.455704638E1
2.201433198E0,1.107936668E1,-9.542576790E0,2.512463741E-2,1.462237221E1
2.203654551E0,1.109850979E1,-9.605388641E0,-8.374879137E-3,1.467789088E1
2.205855865E0,1.111286640E1,-9.715457916E0,-3.170489892E-2,1.476099344E1
2.208053487E0,1.109372425E1,-9.772886276E0,-5.024927482E-2,1.478453749E1
2.210237977E0,1.105065346E1,-9.772886276E0,-5.563312769E-2,1.475226569E1
2.212415984E0,1.101236820E1,-9.786644936E0,-7.776673418E-3,1.473264175E1
2.214636322E0,1.098843956E1,-9.777072906E0,1.196411322E-3,1.470839760E1
2.216831319E0,1.095972633E1,-9.791430473E0,-3.708875179E-2,1.469656720E1
2.219033590E0,1.095015430E1,-9.815358162E0,-2.751746029E-2,1.470536951E1
2.221223592E0,1.092144108E1,-9.820143700E0,-3.230310604E-2,1.468721012E1
2.223420247E0,1.090708351E1,-9.839286804E0,-5.144568533E-2,1.468940714E1
2.225616415E0,1.090708351E1,-9.848857880E0,-7.537391037E-2,1.469592302E1
2.227813171E0,1.089272690E1,-9.853643417E0,-7.058826834E-2,1.468845705E1
2.230009206E0,1.088794136E1,-9.887143135E0,-9.451649338E-2,1.470754228E1
2.232200704E0,1.085444164E1,-9.906285286E0,-9.990034252E-2,1.469569228E1
2.234373169E0,1.086401272E1,-9.930213928E0,-1.040877849E-1,1.471892507E1
2.236583842E0,1.082094193E1,-9.973284721E0,-1.184447184E-1,1.471642692E1
2.238786377E0,1.079701424E1,-1.000678444E1,-9.511470050E-2,1.472142310E1
2.240971395E0,1.074437141E1,-1.000618649E1,-7.597211748E-2,1.468233826E1
2.243182699E0,1.072044373E1,-1.003968525E1,-7.597211748E-2,1.468771478E1
2.245359121E0,1.067737293E1,-1.004925728E1,-7.178468257E-2,1.466284480E1
2.247584076E0,1.063430214E1,-1.005882835E1,-5.264209956E-2,1.463800468E1
2.249775726E0,1.058644581E1,-1.005404282E1,-2.931207791E-2,1.459991339E1
2.251975890E0,1.055294609E1,-1.004387283E1,-1.016949583E-2,1.456860172E1
2.254165944E0,1.051466084E1,-1.001994514E1,-1.076770201E-2,1.452437638E1
2.256361634E0,1.051466084E1,-1.002951622E1,-3.469592705E-2,1.453101827E1
2.258558117E0,1.048654556E1,-1.002473068E1,-2.512463741E-2,1.450736001E1
2.260754628E0,1.048654556E1,-1.001994514E1,-4.426721856E-2,1.450409936E1
2.262951538E0,1.044347477E1,-9.972088814E0,-4.965107143E-2,1.443991641E1
2.265140971E0,1.040518951E1,-9.914660454E0,-5.503492057E-2,1.437259509E1
2.267318888E0,1.038126087E1,-9.853045464E0,-8.434699476E-2,1.431293808E1
2.269539347E0,1.036750221E1,-9.800403595E0,-8.434699476E-2,1.426674900E1
2.271730235E0,1.034836006E1,-9.762118340E0,-1.232303679E-1,1.422683015E1
2.273915731E0,1.035793114E1,-9.704689980E0,-1.280160099E-1,1.419451067E1
2.276127227E0,1.034836006E1,-9.661619186E0,-1.477568001E-1,1.415829345E1
2.278322479E0,1.036750221E1,-9.628120422E0,-1.142572835E-1,1.414916463E1
2.280519786E0,1.037228775E1,-9.551549911E0,-6.640082598E-2,1.410038538E1
2.282716227E0,1.035314560E1,-9.460023880E0,-2.392822690E-2,1.402427353E1
2.284913381E0,1.036331463E1,-9.330811501E0,-5.982056609E-4,1.394497521E1
2.287109680E0,1.034417248E1,-9.225527763E0,3.230310604E-2,1.386049459E1
2.289304240E0,1.031067276E1,-9.129815102E0,4.606183618E-2,1.377191411E1
2.291500132E0,1.025324535E1,-9.067601204E0,4.546362907E-2,1.368767690E1
2.293697042E0,1.017727280E1,-9.019744873E0,3.050848842E-2,1.359902974E1
2.295893321E0,1.008634567E1,-8.976674080E0,1.974078640E-2,1.350242335E1
2.298084474E0,1.000498962E1,-8.976076126E0,5.264209956E-2,1.344144825E1
2.300262512E0,9.914062500E0,-8.980861664E0,9.511470050E-2,1.337735244E1
2.302482422E0,9.851848602E0,-9.004191399E0,1.136590764E-1,1.334718330E1
2.304677114E0,9.784850121E0,-9.047262192E0,1.040877849E-1,1.332693060E1
2.306879374E0,9.718449593E0,-9.080761909E0,9.870393574E-2,1.330106168E1
2.309069448E0,9.670592308E0,-9.123832703E0,5.084748194E-2,1.329538507E1
2.311260773E0,9.584450722E0,-9.157332420E0,4.546362907E-2,1.325596091E1
2.313441224E0,9.517452240E0,-9.176474571E0,6.580262445E-3,1.322080277E1
2.315658957E0,9.412167549E0,-9.190832138E0,-3.230310604E-2,1.315527791E1
2.317849528E0,9.316454887E0,-9.190832138E0,-6.161518395E-2,1.308707467E1
2.320036723E0,9.202198029E0,-9.181260109E0,-8.673982322E-2,1.299936574E1
2.322246959E0,9.092127800E0,-9.147761345E0,-1.112662554E-1,1.289808923E1
2.324442647E0,8.987442017E0,-9.128020287E0,-1.076770201E-1,1.281040447E1
2.326637075E0,8.906085968E0,-9.104690552E0,-1.704886109E-1,1.273745750E1
2.328809815E0,8.805587769E0,-9.080163956E0,-1.710868180E-1,1.264978356E1
2.331032512E0,8.724829674E0,-9.046664238E0,-2.009970993E-1,1.257001140E1
2.333228617E0,8.653044701E0,-9.018548965E0,-2.398804724E-1,1.250067801E1
2.335423798E0,8.586046219E0,-8.984451294E0,-2.261217386E-1,1.242946844E1
2.337627167E0,8.519046783E0,-8.960522652E0,-2.506481707E-1,1.236640404E1
2.339815603E0,8.447860718E0,-8.936594009E0,-2.703889608E-1,1.230049484E1
2.342012197E0,8.390432358E0,-8.912666321E0,-2.805584669E-1,1.224392458E1
2.344202535E0,8.313861847E0,-8.903095245E0,-3.002992272E-1,1.218505574E1
2.346379090E0,8.218149185E0,-8.888737679E0,-2.961117923E-1,1.210930699E1
2.348594564E0,8.123034477E0,-8.892925262E0,-2.967100143E-1,1.204806398E1
2.350769714E0,8.022536278E0,-8.878568649E0,-2.979064286E-1,1.196991303E1
2.352988953E0,7.907680511E0,-8.830712318E0,-2.985046208E-1,1.185757126E1
2.355190064E0,7.812565804E0,-8.796614647E0,-2.805584669E-1,1.176840375E1
2.357391083E0,7.716853142E0,-8.758329391E0,-2.620140910E-1,1.167590714E1
2.359583648E0,7.616354465E0,-8.700901031E0,-2.679961324E-1,1.156660521E1
2.361777038E0,7.535596848E0,-8.638688087E0,-2.590230405E-1,1.146643993E1
2.363969238E0,7.425527096E0,-8.580661774E0,-2.745763958E-1,1.135084144E1
2.366147156E0,7.339385033E0,-8.532805443E0,-2.853440940E-1,1.125863058E1
2.368347250E0,7.268198967E0,-8.475378036E0,-2.907279432E-1,1.116885275E1
2.370561870E0,7.177271366E0,-8.437092781E0,-3.056831062E-1,1.108111912E1
2.372763611E0,7.081558704E0,-8.384450912E0,-2.829512656E-1,1.097850410E1
2.374958689E0,7.005586624E0,-8.317451477E0,-2.883351147E-1,1.087848244E1
2.377149007E0,6.895516872E0,-8.254639626E0,-2.991028428E-1,1.075995775E1
2.379341187E0,6.823731899E0,-8.206783295E0,-2.763710022E-1,1.067665631E1
2.381542572E0,6.738188744E0,-8.139784813E0,-2.865405083E-1,1.057078000E1
2.383739075E0,6.666403770E0,-8.067999840E0,-2.685943544E-1,1.046927426E1
2.385937663E0,6.608976364E0,-8.020143509E0,-2.931207716E-1,1.039649894E1
2.388132101E0,6.552146435E0,-7.948358536E0,-3.032902777E-1,1.030529045E1
2.390329417E0,6.485147476E0,-7.862216949E0,-3.086741269E-1,1.019641471E1
2.392523376E0,6.428318024E0,-7.823931694E0,-3.188436031E-1,1.013108291E1
2.394719504E0,6.375676155E0,-7.756932735E0,-3.242274821E-1,1.004611245E1
2.396915211E0,6.299105644E0,-7.689933777E0,-3.302095234E-1,9.945996770E0
2.399105611E0,6.270989895E0,-7.637291908E0,-3.254238665E-1,9.887337490E0
2.401283223E0,6.208776474E0,-7.579265594E0,-3.170489967E-1,9.802790027E0
2.403505361E0,6.180062771E0,-7.531409264E0,-2.931207716E-1,9.746856987E0
2.405700348E0,6.141777515E0,-7.497909546E0,-3.128615618E-1,9.697317204E0
2.407903412E0,6.122634888E0,-7.440482140E0,-3.278166950E-1,9.641311955E0
2.410092337E0,6.084948063E0,-7.397411346E0,-2.997010350E-1,9.583220141E0
2.412288432E0,6.027520180E0,-7.354340553E0,-3.002992272E-1,9.513543195E0
2.414484884E0,5.989234924E0,-7.311269760E0,-2.955136001E-1,9.455840987E0
2.416680512E0,5.936593056E0,-7.286743164E0,-2.673979402E-1,9.402726451E0
2.418877401E0,5.864808083E0,-7.243672371E0,-2.823530734E-1,9.324509988E0
2.421074513E0,5.793622017E0,-7.200601578E0,-2.883351147E-1,9.246505085E0
2.423270131E0,5.712265968E0,-7.152745247E0,-2.745763958E-1,9.157900374E0
2.425466797E0,5.669195175E0,-7.119245529E0,-2.608176768E-1,9.104474543E0
2.427661652E0,5.602794170E0,-7.071389198E0,-2.709871531E-1,9.026033556E0
2.429858378E0,5.531009674E0,-7.018148899E0,-2.476571500E-1,8.939117185E0
2.432048442E0,5.464010715E0,-6.984649181E0,-2.769692242E-1,8.872285457E0
2.434218588E0,5.397011280E0,-6.946363926E0,-2.919243574E-1,8.801415930E0
2.436421143E0,5.340181828E0,-6.899106026E0,-3.164508045E-1,8.730140149E0
2.438640676E0,5.273182869E0,-6.869793892E0,-3.032902777E-1,8.665593498E0
2.440833384E0,5.201398373E0,-6.817151546E0,-3.230310678E-1,8.580935223E0
2.443036153E0,5.143970490E0,-6.802794933E0,-3.475574851E-1,8.535762854E0
2.445198944E0,5.044070244E0,-6.735795975E0,-3.912265003E-1,8.424170595E0
2.447404582E0,4.991427898E0,-6.698108673E0,-4.205385745E-1,8.363962276E0
2.449622813E0,4.925027370E0,-6.669394970E0,-4.642075896E-1,8.303746898E0
2.451825460E0,4.862813950E0,-6.626324177E0,-4.983053207E-1,8.234284413E0
2.454021800E0,4.800600529E0,-6.578467846E0,-5.419743061E-1,8.161846653E0
2.456212738E0,4.747958183E0,-6.554539204E0,-5.665007830E-1,8.113323254E0
2.458408712E0,4.686343193E0,-6.521039963E0,-6.149554253E-1,8.053815549E0
2.460606416E0,4.624129772E0,-6.483353138E0,-6.681957245E-1,7.991428507E0
2.462800008E0,4.561916351E0,-6.430710793E0,-6.837490797E-1,7.914078272E0
2.464996695E0,4.524229527E0,-6.387639999E0,-7.028916478E-1,7.859049194E0
2.467193981E0,4.481158733E0,-6.339783669E0,-7.322037220E-1,7.798061480E0
2.469388855E0,4.433301926E0,-6.301498413E0,-7.615157962E-1,7.742283547E0
2.471582469E0,4.385445595E0,-6.287141323E0,-8.051848412E-1,7.707697562E0
2.473766775E0,4.342973232E0,-6.268597126E0,-8.386843204E-1,7.672034790E0
2.475977774E0,4.295116425E0,-6.249454498E0,-8.919246197E-1,7.635393648E0
2.478168223E0,4.237689018E0,-6.220740795E0,-9.164510965E-1,7.582579170E0
2.480347148E0,4.185046673E0,-6.201598167E0,-9.409775138E-1,7.540548665E0
2.482569611E0,4.141975880E0,-6.187241077E0,-9.457631707E-1,7.505490278E0
2.484772177E0,4.099503517E0,-6.168098450E0,-9.559326172E-1,7.467608368E0
2.486938853E0,4.066003799E0,-6.144170284E0,-9.708877802E-1,7.431408915E0
2.489154308E0,4.056432724E0,-6.158527374E0,-9.661021233E-1,7.437436331E0
2.491346650E0,4.032504559E0,-6.144170284E0,-9.852447510E-1,7.415027223E0
2.493553080E0,4.003790379E0,-6.163312912E0,-9.852447510E-1,7.415353711E0
2.495743581E0,3.979862213E0,-6.153741837E0,-9.858429432E-1,7.394574236E0
2.497939616E0,3.960719585E0,-6.153741837E0,-9.858429432E-1,7.384289034E0
2.500139263E0,3.955934048E0,-6.148955822E0,-9.762716293E-1,7.376461088E0
2.502330363E0,3.941577196E0,-6.144170284E0,-9.619147182E-1,7.362889324E0
2.504527303E0,3.922434568E0,-6.143572330E0,-9.529415965E-1,7.350991199E0
2.506722351E0,3.908077478E0,-6.124429703E0,-9.529415965E-1,7.327332833E0
2.508920838E0,3.879363775E0,-6.124429703E0,-9.146564603E-1,7.307167640E0
2.511111572E0,3.869792461E0,-6.090929985E0,-9.056833982E-1,7.272893798E0
2.513293427E0,3.865006685E0,-6.086144447E0,-8.913264275E-1,7.264564248E0
2.515507294E0,3.845864296E0,-6.081358910E0,-8.817551732E-1,7.249213099E0
2.517697215E0,3.841078520E0,-6.076572895E0,-8.673982024E-1,7.240925492E0
2.519878774E0,3.821935892E0,-6.066403389E0,-8.530412912E-1,7.220534848E0
2.522096517E0,3.821935892E0,-6.061617851E0,-8.099704385E-1,7.211550253E0
2.524292430E0,3.821935892E0,-6.047261238E0,-7.914260626E-1,7.197424377E0
2.526493755E0,3.826721668E0,-6.032904148E0,-7.914260626E-1,7.187912520E0
2.528676219E0,3.826721668E0,-6.028118610E0,-7.579265833E-1,7.180283101E0
2.530878052E0,3.812364578E0,-6.046662807E0,-7.435696125E-1,7.186734346E0
2.533056071E0,3.812364578E0,-6.032305717E0,-7.339983582E-1,7.173673364E0
2.535275177E0,3.826721668E0,-6.037091732E0,-7.196413875E-1,7.183881892E0
2.537468730E0,3.855435371E0,-6.037091732E0,-6.903293133E-1,7.196347202E0
2.539670451E0,3.879363775E0,-6.056233883E0,-6.807580590E-1,7.224324445E0
2.541861694E0,3.903291941E0,-6.061019897E0,-6.610172391E-1,7.239378009E0
2.544061463E0,3.912863255E0,-6.070590973E0,-6.179464459E-1,7.248753784E0
2.546265686E0,3.955934048E0,-6.070590973E0,-6.179464459E-1,7.272093699E0
2.548445029E0,3.979264021E0,-6.084948063E0,-5.886343718E-1,7.294355729E0
2.550616608E0,4.036691666E0,-6.108876228E0,-5.641079545E-1,7.343804611E0
2.552820913E0,4.070191383E0,-6.122634888E0,-5.210371017E-1,7.370522066E0
2.555012604E0,4.108476639E0,-6.122634888E0,-4.923232496E-1,7.389764573E0
2.557204295E0,4.151547432E0,-6.146563053E0,-4.725824594E-1,7.432288855E0
2.559411957E0,4.217947960E0,-6.156134605E0,-4.336991012E-1,7.475103557E0
2.561628561E0,4.241876125E0,-6.175277233E0,-3.948157430E-1,7.502229098E0
2.563829805E0,4.275375843E0,-6.208178520E0,-3.517449200E-1,7.546127724E0
2.566018118E0,4.332803726E0,-6.212964058E0,-3.272185028E-1,7.581634551E0
2.568189311E0,4.380660057E0,-6.203392506E0,-3.032902777E-1,7.600279344E0
2.570412282E0,4.442275047E0,-6.217749596E0,-2.835494876E-1,7.646869813E0
2.572610220E0,4.475774765E0,-6.232106686E0,-2.590230405E-1,7.677161352E0
2.574820465E0,4.523631096E0,-6.236892223E0,-2.446661144E-1,7.708561760E0
2.576993347E0,4.561916351E0,-6.232106686E0,-2.344966233E-1,7.726915504E0
2.579171479E0,4.628915310E0,-6.232106686E0,-2.338984162E-1,7.766641433E0
2.581390137E0,4.686343193E0,-6.236892223E0,-2.141576260E-1,7.804261696E0
2.583589732E0,4.743172646E0,-6.237490654E0,-2.141576260E-1,7.838994827E0
2.585790609E0,4.795814991E0,-6.227919102E0,-2.279163599E-1,7.863762689E0
2.587980775E0,4.834099770E0,-6.237490654E0,-2.183450609E-1,7.894459121E0
2.590176788E0,4.891527653E0,-6.261418819E0,-2.177468538E-1,7.948573589E0
2.592374074E0,4.948955536E0,-6.256632805E0,-2.315055877E-1,7.980677276E0
2.594563019E0,5.001597404E0,-6.276373863E0,-2.404786795E-1,8.029114239E0
2.596740693E0,5.054239750E0,-6.309873104E0,-2.542374134E-1,8.088539714E0
2.598955180E0,5.087141037E0,-6.314659119E0,-2.542374134E-1,8.112863883E0
2.601134298E0,5.130211830E0,-6.348158360E0,-2.632105052E-1,8.166239511E0
2.603360097E0,5.182853699E0,-6.387042046E0,-3.056831062E-1,8.231021851E0
2.605549815E0,5.225924492E0,-6.420541286E0,-3.385843933E-1,8.285425553E0
2.607751760E0,5.273781300E0,-6.458826542E0,-3.762713671E-1,8.346902997E0
2.609941082E0,5.321637630E0,-6.507281303E0,-4.091726840E-1,8.416172486E0
2.612127828E0,5.383851051E0,-6.559923172E0,-4.468596280E-1,8.498124952E0
2.614313171E0,5.455037594E0,-6.608377934E0,-4.749752879E-1,8.582173127E0
2.616530863E0,5.498108387E0,-6.670591354E0,-5.222335458E-1,8.660179717E0
2.618729208E0,5.555535793E0,-6.742375851E0,-5.599204898E-1,8.754263020E0
2.620928365E0,5.603392601E0,-6.809973240E0,-5.593222976E-1,8.836661451E0
2.623118958E0,5.660222054E0,-6.896114826E0,-6.059823632E-1,8.942132185E0
2.625315135E0,5.688935757E0,-6.967899323E0,-6.293123364E-1,9.017296991E0
2.627511262E0,5.732006550E0,-7.059424877E0,-6.622136831E-1,9.117560290E0
2.629708354E0,5.779862881E0,-7.121638298E0,-6.759724021E-1,9.196819323E0
2.631905904E0,5.827121258E0,-7.193423271E0,-6.897311211E-1,9.283124987E0
2.634099579E0,5.889334679E0,-7.265207767E0,-7.417750359E-1,9.381776861E0
2.636295309E0,5.951548100E0,-7.328019142E0,-7.459624410E-1,9.469807247E0
2.638489492E0,6.008975983E0,-7.380661488E0,-8.021938205E-1,9.551202609E0
2.640677226E0,6.075376511E0,-7.442874908E0,-8.015955687E-1,9.641013541E0
2.642884898E0,6.123233318E0,-7.529016495E0,-8.153542876E-1,9.738833517E0
2.645074230E0,6.185446739E0,-7.582256794E0,-8.291130662E-1,9.820274840E0
2.647255188E0,6.227919102E0,-7.649255753E0,-8.333004713E-1,9.899115091E0
2.649474193E0,6.280561447E0,-7.721040249E0,-8.279166222E-1,9.987259912E0
2.651663280E0,6.328417778E0,-7.778468132E0,-8.273184299E-1,1.006170432E1
2.653848949E0,6.381059647E0,-7.840681553E0,-8.261220455E-1,1.014281455E1
2.656060883E0,6.480959892E0,-7.907680511E0,-8.350951076E-1,1.025824722E1
2.658258108E0,6.538387775E0,-7.941778183E0,-8.584251404E-1,1.032275395E1
2.660462393E0,6.600601196E0,-7.994420528E0,-8.865407705E-1,1.040503005E1
2.662649374E0,6.676573277E0,-8.070990562E0,-8.805587292E-1,1.051156045E1
2.664845713E0,6.762714863E0,-8.114660263E0,-9.038887620E-1,1.060184127E1
2.667041179E0,6.839285374E0,-8.162516594E0,-8.883354068E-1,1.068604891E1
2.669238984E0,6.934400082E0,-8.234300613E0,-9.020941257E-1,1.080293409E1
2.671437389E0,7.010970116E0,-8.291728973E0,-9.008977413E-1,1.089578304E1
2.673630860E0,7.082755089E0,-8.349754333E0,-9.529415965E-1,1.099053751E1
2.675827037E0,7.201797962E0,-8.440681458E0,-9.517452121E-1,1.113628377E1
2.678015727E0,7.292725086E0,-8.502895355E0,-9.792626500E-1,1.124464423E1
2.680193736E0,7.387839794E0,-8.570492744E0,-9.930213690E-1,1.135868012E1
2.682417593E0,7.507481098E0,-8.685347557E0,-1.019940615E0,1.152552877E1
2.684620597E0,7.607979774E0,-8.757730484E0,-1.037886858E0,1.164716311E1
2.686813731E0,7.679165840E0,-8.852845192E0,-1.008574724E0,1.176263912E1
2.689004893E0,7.779664516E0,-8.920442581E0,-1.007378340E0,1.187906928E1
2.691197774E0,7.879564762E0,-9.016156197E0,-1.006181955E0,1.201628127E1
2.693396180E0,7.965706348E0,-9.059226990E0,-9.912267923E-1,1.210390854E1
2.695592021E0,8.075178146E0,-9.131011009E0,-9.996016622E-1,1.223041568E1
2.697792542E0,8.194819450E0,-9.226723671E0,-1.003190875E0,1.238119087E1
2.700003001E0,8.299505234E0,-9.327820778E0,-1.001994491E0,1.252573433E1
2.702181356E0,8.395217896E0,-9.399605751E0,-1.010369420E0,1.264330329E1
2.704376790E0,8.514261246E0,-9.480961800E0,-9.996016622E-1,1.278203758E1
2.706569448E0,8.600402832E0,-9.557532310E0,-9.936196208E-1,1.289576026E1
2.708768942E0,8.710473061E0,-9.625128746E0,-9.972088337E-1,1.301959561E1
2.710959890E0,8.819944382E0,-9.686744690E0,-9.535398483E-1,1.313520764E1
2.713137828E0,8.920442581E0,-9.706484795E0,-9.667003751E-1,1.321834530E1
2.715357626E0,9.034700394E0,-9.754341125E0,-9.224331379E-1,1.332756035E1
2.717553752E0,9.154341698E0,-9.806983948E0,-9.116654396E-1,1.344656238E1
2.719756491E0,9.292527199E0,-9.854840279E0,-9.200403094E-1,1.357628126E1
2.721945517E0,9.397810936E0,-9.878767967E0,-8.811569214E-1,1.366328454E1
2.724143016E0,9.527023315E0,-9.917053223E0,-8.321040869E-1,1.377695594E1
2.726337952E0,9.665208817E0,-9.922437668E0,-8.404789567E-1,1.387722723E1
2.728534251E0,9.789635658E0,-9.932008743E0,-8.398807645E-1,1.397093997E1
2.730723633E0,9.923633575E0,-9.927223206E0,-8.243274093E-1,1.406085985E1
2.732894492E0,1.005703354E1,-9.937392235E0,-8.183453679E-1,1.416211062E1
2.735097718E0,1.018146038E1,-9.913464546E0,-8.177471161E-1,1.423403053E1
2.737319896E0,1.029631615E1,-9.899705887E0,-8.309076428E-1,1.430764517E1
2.739521790E0,1.040159988E1,-9.885348320E0,-8.255237937E-1,1.437340882E1
2.741719554E0,1.049671459E1,-9.842277527E0,-8.105686903E-1,1.441209443E1
2.743903310E0,1.059242725E1,-9.828518867E0,-8.195417523E-1,1.447311117E1
2.746089834E0,1.066421223E1,-9.804591179E0,-7.902296782E-1,1.450792520E1
2.748292725E0,1.076949692E1,-9.780662537E0,-7.657032609E-1,1.456810643E1
2.750470267E0,1.085085201E1,-9.747162819E0,-7.555337548E-1,1.460544432E1
2.752695638E0,1.095553875E1,-9.694520950E0,-7.363911867E-1,1.464751985E1
2.754889191E0,1.103210926E1,-9.641879082E0,-7.166503668E-1,1.466924861E1
2.757090495E0,1.112303638E1,-9.580264091E0,-6.969096065E-1,1.469656700E1
2.759281392E0,1.122832012E1,-9.527621269E0,-6.628118753E-1,1.474076183E1
2.761476075E0,1.132403278E1,-9.474979401E0,-6.239284873E-1,1.477830301E1
2.763672750E0,1.143410301E1,-9.441479683E0,-6.041877270E-1,1.484066350E1
2.765862000E0,1.153878880E1,-9.403194427E0,-5.270192027E-1,1.489434327E1
2.768039612E0,1.165364456E1,-9.360123634E0,-5.024927258E-1,1.495566264E1
2.770261546E0,1.172542953E1,-9.307481766E0,-4.594219327E-1,1.497751592E1
2.772453431E0,1.181635666E1,-9.259625435E0,-4.061816335E-1,1.501772058E1
2.774640860E0,1.189771271E1,-9.187242508E0,-3.098705411E-1,1.503519246E1
2.776850627E0,1.198385429E1,-9.120243073E0,-2.763710022E-1,1.506213724E1
2.779045258E0,1.207896900E1,-9.048459053E0,-2.566302419E-1,1.509443482E1
2.781246389E0,1.216511059E1,-9.001200676E0,-2.273181528E-1,1.513483408E1
2.783432007E0,1.226082325E1,-8.934201241E0,-2.081755698E-1,1.517204916E1
2.785612071E0,1.233260822E1,-8.871988297E0,-1.836491376E-1,1.519339096E1
2.787830863E0,1.241874981E1,-8.809774399E0,-1.208375469E-1,1.522668951E1
2.790028027E0,1.247139168E1,-8.728418350E0,-9.690931439E-2,1.522268993E1
2.792228882E0,1.251446247E1,-8.670990944E0,-8.733802289E-2,1.522515953E1
2.794414246E0,1.255274773E1,-8.599205971E0,-1.351944804E-1,1.521631021E1
2.796593751E0,1.258146191E1,-8.556734085E0,-1.782652885E-1,1.521652590E1
2.798804556E0,1.260120201E1,-8.495118141E0,-2.404786795E-1,1.519918269E1
2.800981466E0,1.261555958E1,-8.514859200E0,-3.744767308E-1,1.522482852E1
2.803208690E0,1.260598755E1,-8.544171333E0,-4.606183469E-1,1.523568033E1
2.805404440E0,1.258684540E1,-8.648857117E0,-4.552344978E-1,1.527869906E1
2.807621419E0,1.257188988E1,-8.715856552E0,-4.648058116E-1,1.530472525E1
2.809792023E0,1.250489140E1,-8.710473061E0,-3.122633696E-1,1.524277397E1
2.811983847E0,1.243789196E1,-8.666205406E0,-1.740778536E-1,1.516029603E1
2.814155315E0,1.236670589E1,-8.608179092E0,-6.460621208E-2,1.506785771E1
2.816381500E0,1.235234833E1,-8.584251404E0,1.615155302E-2,1.504227849E1
2.818570577E0,1.239063358E1,-8.526823044E0,3.529413417E-2,1.504113551E1
2.820756664E0,1.242891884E1,-8.379066467E0,-5.084748194E-2,1.498964188E1
2.822968609E0,1.249113274E1,-8.302495956E0,-3.649054468E-2,1.499870553E1
2.825159638E0,1.255813122E1,-8.173283577E0,-4.606183618E-2,1.498370267E1
2.827335593E0,1.260120201E1,-8.039285660E0,-3.230310604E-2,1.494728904E1
2.829532004E0,1.265922832E1,-7.939385414E0,-6.520441920E-2,1.494303029E1
2.831729299E0,1.265922832E1,-7.910671711E0,-7.537391037E-2,1.492784211E1
2.833952973E0,1.265444279E1,-7.867600918E0,-8.973085135E-2,1.490107775E1
2.836151612E0,1.259701443E1,-7.805387497E0,-9.511470050E-2,1.481951056E1
2.838348349E0,1.253001595E1,-7.757531166E0,-8.135596663E-2,1.473727275E1
2.840541301E0,1.247318649E1,-7.690532207E0,-1.016949639E-1,1.465383939E1
2.842751170E0,1.243011570E1,-7.666603565E0,-1.495514214E-1,1.460503174E1
2.844924052E0,1.238704491E1,-7.619345665E0,-1.836491376E-1,1.454396909E1
2.847102174E0,1.231585789E1,-7.581060410E0,-2.129612118E-1,1.446368504E1
2.849318563E0,1.223928738E1,-7.542177200E0,-1.950150430E-1,1.437785183E1
2.851515330E0,1.214836025E1,-7.479963779E0,-1.812563092E-1,1.426763361E1
2.853708080E0,1.205743313E1,-7.460222721E0,-1.435693651E-1,1.417946504E1
2.855910859E0,1.194796181E1,-7.460222721E0,-1.256231815E-1,1.408632300E1
2.858107066E0,1.186182022E1,-7.488936901E0,-1.357926875E-1,1.402873460E1
2.860307353E0,1.177089310E1,-7.570292473E0,-1.549352705E-1,1.399597290E1
2.862499227E0,1.169910812E1,-7.646862984E0,-1.986042857E-1,1.397795007E1
2.864691498E0,1.158425236E1,-7.703692436E0,-1.800599098E-1,1.391309460E1
2.866870850E0,1.146939754E1,-7.760521889E0,-1.423729509E-1,1.384893679E1
2.869087749E0,1.130668545E1,-7.760521889E0,-1.196411327E-1,1.371426811E1
2.871284384E0,1.116849995E1,-7.774280548E0,-8.733802289E-2,1.360817611E1
2.873485413E0,1.102971554E1,-7.754539967E0,-3.529413417E-2,1.348290624E1
2.875676636E0,1.090528965E1,-7.758727551E0,1.615155302E-2,1.338370115E1
2.877873017E0,1.078086281E1,-7.767700672E0,7.716853172E-2,1.328796943E1
2.880068360E0,1.069950676E1,-7.771887779E0,1.339980662E-1,1.322496276E1
2.882266866E0,1.061336517E1,-7.819146156E0,2.009970993E-1,1.318419382E1
2.884460989E0,1.053679466E1,-7.842476368E0,2.865405083E-1,1.313813468E1
2.886656963E0,1.046022415E1,-7.890332699E0,3.481557071E-1,1.310705351E1
2.888852570E0,1.043629551E1,-7.942376614E0,4.438686073E-1,1.312229513E1
2.891048920E0,1.040279675E1,-8.008777618E0,5.204389095E-1,1.313885671E1
2.893245820E0,1.042134094E1,-8.046463966E0,6.071787477E-1,1.318023503E1
2.895442537E0,1.042612648E1,-8.099106789E0,6.502495408E-1,1.321826269E1
2.897638184E0,1.044048309E1,-8.117650986E0,6.885347366E-1,1.324288582E1
2.899828736E0,1.046441174E1,-8.136793137E0,7.178468108E-1,1.327503746E1
2.902004731E0,1.046441174E1,-8.151150703E0,7.369893789E-1,1.328489082E1
2.904225993E0,1.046919727E1,-8.136793137E0,7.704889178E-1,1.328175995E1
2.906417165E0,1.043569756E1,-8.112266541E0,8.033902049E-1,1.324228408E1
2.908609457E0,1.042612648E1,-8.054839134E0,8.368897438E-1,1.320170183E1
2.910829479E0,1.039741230E1,-7.997411251E0,8.745766878E-1,1.314646925E1
2.912988485E0,1.037827015E1,-7.953742504E0,9.122636318E-1,1.310735427E1
2.915212149E0,1.034477043E1,-7.867600918E0,9.451649189E-1,1.303099214E1
2.917399140E0,1.033579731E1,-7.791030407E0,9.499505758E-1,1.297810722E1
2.919604676E0,1.026879883E1,-7.719245911E0,9.966106415E-1,1.288519381E1
2.921795715E0,1.024008465E1,-7.642077446E0,1.019940615E0,1.281799361E1
2.923991324E0,1.020658493E1,-7.551149845E0,1.052842021E0,1.273980833E1
2.926188060E0,1.017368412E1,-7.474579811E0,1.076171994E0,1.267009621E1
2.928384196E0,1.013539886E1,-7.393223763E0,1.104287624E0,1.259386831E1
2.930580892E0,1.010668468E1,-7.306483746E0,1.132403374E0,1.252246451E1
2.932770335E0,1.007797050E1,-7.215556622E0,1.184447169E0,1.245121126E1
2.934948914E0,1.006421185E1,-7.134200573E0,1.193420291E0,1.239392714E1
2.937168630E0,1.005942631E1,-7.048058987E0,1.198205948E0,1.234110573E1
2.939359976E0,1.004985523E1,-6.976274490E0,1.197607756E0,1.229236594E1
2.941548025E0,1.002592659E1,-6.909275532E0,1.216152072E0,1.223667922E1
2.943750225E0,1.000199890E1,-6.837490559E0,1.211366415E0,1.217615160E1
2.945927654E0,9.988240242E0,-6.784848690E0,1.210768223E0,1.213528222E1
2.948154847E0,9.973882675E0,-6.698707104E0,1.205384374E0,1.207493122E1
2.950346202E0,9.945169449E0,-6.641279221E0,1.200000525E0,1.201885961E1
2.952550344E0,9.911669731E0,-6.569494724E0,1.190429211E0,1.195058909E1
2.954738201E0,9.902696609E0,-6.497709751E0,1.199402332E0,1.190471327E1
2.956936626E0,9.864411354E0,-6.430710793E0,1.165304661E0,1.183294501E1
2.959129366E0,9.835697174E0,-6.344569206E0,1.169492126E0,1.176274667E1
2.961325796E0,9.806983948E0,-6.268597126E0,1.140179992E0,1.169496706E1
2.963521444E0,9.764511108E0,-6.201598167E0,1.096511006E0,1.161928713E1
2.965719321E0,9.745368004E0,-6.125027657E0,1.076770186E0,1.156060532E1
2.967914572E0,9.721440315E0,-6.049055576E0,1.048056364E0,1.149764747E1
2.970112071E0,9.707681656E0,-5.986842155E0,9.948160052E-1,1.144862529E1
2.972302288E0,9.693324089E0,-5.915057659E0,9.702895880E-1,1.139692506E1
2.974483379E0,9.669396400E0,-5.858228207E0,9.320043921E-1,1.134392774E1
2.976698894E0,9.641280174E0,-5.781657696E0,9.026923180E-1,1.127815156E1
2.978889588E0,9.641280174E0,-5.710471153E0,8.398807645E-1,1.123695528E1
2.981074646E0,9.636494637E0,-5.667400360E0,8.207381964E-1,1.120959709E1
2.983288596E0,9.626923561E0,-5.605186939E0,7.914260626E-1,1.116790639E1
2.985484029E0,9.617352486E0,-5.552545071E0,7.770691514E-1,1.113229815E1
2.987686178E0,9.574879646E0,-5.495117188E0,7.477570772E-1,1.106497961E1
2.989876140E0,9.574879646E0,-5.452644825E0,7.046862841E-1,1.104111582E1
2.992073446E0,9.560523033E0,-5.404788017E0,6.753742099E-1,1.100324791E1
2.994261719E0,9.536594391E0,-5.347360611E0,6.652047038E-1,1.095369323E1
2.996438640E0,9.513264656E0,-5.280361176E0,6.317051649E-1,1.089878296E1
2.998653963E0,9.503693581E0,-5.223531723E0,6.023930907E-1,1.086132371E1
3.000832103E0,9.498908043E0,-5.151747227E0,6.119644046E-1,1.082331991E1
3.003059764E0,9.484550476E0,-5.094319344E0,5.970092416E-1,1.078263453E1
3.005243765E0,9.479764938E0,-5.027320385E0,5.635097623E-1,1.074511223E1
3.007425487E0,9.470791817E0,-4.989035130E0,5.629115105E-1,1.071929282E1
3.009641642E0,9.446864128E0,-4.917250633E0,5.718846321E-1,1.066534799E1
3.011831970E0,9.437292099E0,-4.869394302E0,5.862415433E-1,1.063565523E1
3.014018840E0,9.427721024E0,-4.811966419E0,5.712863803E-1,1.060015626E1
3.016229809E0,9.413364410E0,-4.759324074E0,5.760720372E-1,1.056382763E1
3.018421571E0,9.408578873E0,-4.697110653E0,5.802595019E-1,1.053189945E1
3.020607138E0,9.390034676E0,-4.630111694E0,5.706881881E-1,1.048505463E1
3.022820771E0,9.380462646E0,-4.587639332E0,5.461617708E-1,1.045647200E1
3.025014364E0,9.390034676E0,-4.520640373E0,5.653043389E-1,1.043688218E1
3.027215841E0,9.375677109E0,-4.467998028E0,5.503492355E-1,1.040044287E1
3.029406485E0,9.375677109E0,-4.386641979E0,5.312066078E-1,1.036475420E1
3.031599143E0,9.370891571E0,-4.343571186E0,5.401797295E-1,1.034272757E1
3.033783011E0,9.371489525E0,-4.295714855E0,5.306084156E-1,1.032276743E1
3.035996125E0,9.357132912E0,-4.233501434E0,5.347958803E-1,1.028418579E1
3.038191753E0,9.357132912E0,-4.185645103E0,5.539384484E-1,1.026559346E1
3.040392202E0,9.352347374E0,-4.147359848E0,5.347958803E-1,1.024465723E1
3.042583079E0,9.333204269E0,-4.094717979E0,5.246263742E-1,1.020542258E1
3.044773601E0,9.314062119E0,-4.051646709E0,5.246263742E-1,1.017068469E1
3.046952678E0,9.309276581E0,-4.018147469E0,5.192425251E-1,1.015272143E1
3.049172567E0,9.305088997E0,-3.970290899E0,5.192425251E-1,1.013002981E1
3.051368866E0,9.305088997E0,-3.955934048E0,5.479564071E-1,1.012592473E1
3.053571076E0,9.309874535E0,-3.932604074E0,5.192425251E-1,1.011972092E1
3.055761069E0,9.324232101E0,-3.903890133E0,5.288137794E-1,1.012231725E1
3.057957754E0,9.333803177E0,-3.899104595E0,5.144568682E-1,1.012855193E1
3.060152771E0,9.348159790E0,-3.875176191E0,5.240281820E-1,1.013309861E1
3.062348430E0,9.352945328E0,-3.884747505E0,5.144568682E-1,1.014068614E1
3.064539084E0,9.381659508E0,-3.879961967E0,5.048855543E-1,1.016486839E1
3.066718212E0,9.376873970E0,-3.889533281E0,5.096712112E-1,1.016434943E1
3.068937836E0,9.395418167E0,-3.908675671E0,5.150550604E-1,1.018905833E1
3.071135408E0,9.419346809E0,-3.918246984E0,5.006981492E-1,1.021408108E1
3.073335735E0,9.433703423E0,-3.923032761E0,5.054838061E-1,1.022939198E1
3.075526805E0,9.471988678E0,-3.932604074E0,4.917250574E-1,1.026770363E1
3.077716156E0,9.495916367E0,-3.942175388E0,5.252245665E-1,1.029509763E1
3.079896821E0,9.510273933E0,-3.961317778E0,5.347958803E-1,1.031616961E1
3.082113912E0,9.505488396E0,-3.966103554E0,5.395814776E-1,1.031384677E1
3.084310252E0,9.519845009E0,-3.985246181E0,5.449653864E-1,1.033472899E1
3.086512066E0,9.534201622E0,-3.994817495E0,5.784648657E-1,1.035346266E1
3.088703900E0,9.538987160E0,-3.999004841E0,6.215356588E-1,1.036197965E1
3.090899161E0,9.548559189E0,-4.022933006E0,6.406782866E-1,1.038120615E1
3.093097291E0,9.558130264E0,-4.013361931E0,6.502495408E-1,1.038690294E1
3.095291047E0,9.586843491E0,-4.008575916E0,6.412764788E-1,1.041093101E1
3.097487650E0,9.610174179E0,-4.008575916E0,6.747759581E-1,1.043453167E1
3.099678020E0,9.629316330E0,-4.018147469E0,6.891329288E-1,1.045677514E1
3.101858430E0,9.672387123E0,-4.037290096E0,6.753742099E-1,1.050290028E1
3.104075848E0,9.691530228E0,-4.027718544E0,7.088736892E-1,1.051906729E1
3.106272634E0,9.705886841E0,-3.998406649E0,7.950153351E-1,1.052727621E1
3.108466879E0,9.734601021E0,-3.974478483E0,8.524430394E-1,1.054919880E1
3.110635601E0,9.758528709E0,-3.964907169E0,8.811569214E-1,1.057004300E1
3.112841585E0,9.796813965E0,-3.960121393E0,9.152546525E-1,1.060649878E1
3.115054973E0,9.844670296E0,-3.964907169E0,9.062815905E-1,1.065173077E1
3.117258505E0,9.868000984E0,-3.979264021E0,9.302098155E-1,1.068069641E1
3.119453258E0,9.887143135E0,-3.983451605E0,9.828519225E-1,1.070464777E1
3.121645651E0,9.901499748E0,-3.988237143E0,9.972088337E-1,1.072101479E1
3.123842632E0,9.906285286E0,-3.997808456E0,1.035493970E0,1.073262356E1
3.126037426E0,9.934999466E0,-4.012165546E0,1.064806104E0,1.076733480E1
3.128234621E0,9.963713646E0,-4.016951084E0,1.083948612E0,1.079751963E1
3.130429382E0,9.958928108E0,-4.054637909E0,1.108475089E0,1.080967412E1
3.132619609E0,9.982855797E0,-4.054637909E0,1.122832060E0,1.083320129E1
3.134796703E0,1.000618649E1,-4.073780537E0,1.113260746E0,1.086088419E1
3.137017905E0,1.002532864E1,-4.112065792E0,1.128215909E0,1.089445595E1
3.139212606E0,1.002054310E1,-4.140779495E0,1.156929731E0,1.090393623E1
3.141409882E0,1.001575756E1,-4.188635826E0,1.171286702E0,1.091933982E1
3.143600384E0,1.002054310E1,-4.226323128E0,1.214357495E0,1.094293175E1
3.145778646E0,1.002532864E1,-4.250251293E0,1.248455167E0,1.096040559E1
3.148002870E0,1.001575756E1,-4.288536549E0,1.277169108E0,1.096987266E1
3.150194774E0,1.000080204E1,-4.316651821E0,1.315454245E0,1.097177945E1
3.152397767E0,9.991230965E0,-4.364508629E0,1.353739381E0,1.098663925E1
3.154585989E0,9.976874352E0,-4.407579422E0,1.368096352E0,1.099256411E1
3.156781749E0,9.962516785E0,-4.459623337E0,1.368096352E0,1.100053038E1
3.158980276E0,9.957731247E0,-4.517050743E0,1.416550994E0,1.102573243E1
3.161176464E0,9.952945709E0,-4.564907551E0,1.450050473E0,1.104545860E1
3.163374380E0,9.952945709E0,-4.617549419E0,1.454836130E0,1.106794647E1
3.165561504E0,9.943374634E0,-4.683950424E0,1.474576950E0,1.108983624E1
3.167738578E0,9.952347755E0,-4.736592293E0,1.508076429E0,1.112469446E1
3.169959778E0,9.961918831E0,-4.798805714E0,1.503889084E0,1.115930309E1
3.172156221E0,9.952347755E0,-4.855635166E0,1.551745534E0,1.118187520E1
3.174359335E0,9.942776680E0,-4.913063049E0,1.575673699E0,1.120177416E1
3.176543499E0,9.957133293E0,-4.975276470E0,1.590628862E0,1.124401972E1
3.178713817E0,9.956535339E0,-5.070989609E0,1.600200176E0,1.128752285E1
3.180918132E0,9.951749802E0,-5.152345181E0,1.600798368E0,1.132018288E1
3.183137055E0,9.961320877E0,-5.242674351E0,1.606182218E0,1.137072422E1
3.185334138E0,9.942177773E0,-5.338387489E0,1.596610904E0,1.139712447E1
3.187513866E0,9.970293999E0,-5.439484119E0,1.554138303E0,1.146342426E1
3.189725973E0,9.946365356E0,-5.535196781E0,1.530808330E0,1.148529326E1
3.191922669E0,9.941579819E0,-5.635695457E0,1.497308731E0,1.152553712E1
3.194124441E0,9.922437668E0,-5.721837044E0,1.473978758E0,1.154845452E1
3.196314434E0,9.908080101E0,-5.803193092E0,1.416550994E0,1.156951676E1
3.198511750E0,9.888937950E0,-5.894120216E0,1.383051515E0,1.159502386E1
3.200707043E0,9.874580383E0,-5.966503143E0,1.345364571E0,1.161535636E1
3.202902487E0,9.841081619E0,-6.052644730E0,1.292722464E0,1.162551190E1
3.205098237E0,9.826724052E0,-6.114858150E0,1.240080357E0,1.164018020E1
3.207294598E0,9.821938515E0,-6.181857109E0,1.192822099E0,1.166656154E1
3.209491406E0,9.802796364E0,-6.215955257E0,1.125823021E0,1.166192067E1
3.211686677E0,9.798010826E0,-6.278168201E0,1.068395257E0,1.168579824E1
3.213878785E0,9.793225288E0,-6.317051888E0,1.025324464E0,1.169887586E1
3.216080221E0,9.788438797E0,-6.369693756E0,9.684949517E-1,1.171855431E1
3.218270864E0,9.783653259E0,-6.413362980E0,8.967102766E-1,1.173265465E1
3.220455007E0,9.798010826E0,-6.432505608E0,8.392825127E-1,1.175085272E1
3.222667807E0,9.788438797E0,-6.461219311E0,7.962117195E-1,1.175563023E1
3.224863985E0,9.807581902E0,-6.485745907E0,7.441678643E-1,1.178165305E1
3.227064698E0,9.802796364E0,-6.510272026E0,6.723831892E-1,1.178688074E1
3.229257447E0,9.831509590E0,-6.529414654E0,6.059823632E-1,1.181774307E1
3.231454164E0,9.860223770E0,-6.534798622E0,5.581258535E-1,1.184225951E1
3.233653698E0,9.865009308E0,-6.558726788E0,5.246263742E-1,1.185793146E1
3.235844279E0,9.903294563E0,-6.573083878E0,4.725824594E-1,1.189554577E1
3.238040762E0,9.932008743E0,-6.583253384E0,4.342973232E-1,1.192361677E1
3.240235495E0,9.946365356E0,-6.607181549E0,3.774677813E-1,1.194686209E1
3.242433309E0,1.000379372E1,-6.631708145E0,3.391826153E-1,1.200710150E1
3.244632172E0,1.004148006E1,-6.646064758E0,2.871387303E-1,1.204507980E1
3.246837413E0,1.007497978E1,-6.665805817E0,2.638086975E-1,1.208336790E1
3.249022229E0,1.010847950E1,-6.680162430E0,2.255235314E-1,1.211844828E1
3.251218975E0,1.016112137E1,-6.695117950E0,1.782652885E-1,1.216983033E1
3.253411541E0,1.017547798E1,-6.719046116E0,1.399801224E-1,1.219448758E1
3.255610455E0,1.019940662E1,-6.738188744E0,1.310070455E-1,1.222490269E1
3.257805889E0,1.024726295E1,-6.762714863E0,8.374879509E-2,1.227793648E1
3.260002289E0,1.028554821E1,-6.801000118E0,6.460621208E-2,1.233086690E1
3.262198223E0,1.033340454E1,-6.839285374E0,3.649054468E-2,1.239178782E1
3.264395519E0,1.036690426E1,-6.891927242E0,1.316052489E-2,1.244875649E1
3.266584605E0,1.039501953E1,-6.935596466E0,-1.016949583E-2,1.249636078E1
3.268762930E0,1.046201897E1,-6.969096184E0,-5.742774159E-2,1.257081701E1
3.270983511E0,1.050030422E1,-7.003193855E0,-8.554340899E-2,1.262174436E1
3.273179017E0,1.054816055E1,-7.046264648E0,-1.142572835E-1,1.268568450E1
3.275381267E0,1.060558796E1,-7.079763889E0,-1.232303679E-1,1.275212682E1
3.277565787E0,1.064865875E1,-7.132406235E0,-1.369891018E-1,1.281732881E1
3.279745241E0,1.067677498E1,-7.166503906E0,-1.651047617E-1,1.285999851E1
3.281964693E0,1.071027374E1,-7.228717327E0,-1.932204217E-1,1.292291190E1
3.284154206E0,1.076291656E1,-7.262216568E0,-1.926222295E-1,1.298527111E1
3.286337698E0,1.079641533E1,-7.305287361E0,-2.069791555E-1,1.303735586E1
3.288552084E0,1.082512951E1,-7.344171047E0,-2.446661144E-1,1.308358280E1
3.290748546E0,1.087777138E1,-7.382455826E0,-2.584248483E-1,1.314889150E1
3.292950542E0,1.090648556E1,-7.406384468E0,-2.769692242E-1,1.318645783E1
3.295140799E0,1.094417286E1,-7.449455261E0,-3.056831062E-1,1.324245995E1
3.297337211E0,1.099202919E1,-7.478168964E0,-3.050848842E-1,1.329815001E1
3.299534170E0,1.102074242E1,-7.531409264E0,-3.236292601E-1,1.335228912E1
3.301729493E0,1.108295631E1,-7.574480057E0,-3.038884699E-1,1.342747247E1
3.303927278E0,1.110150051E1,-7.607381344E0,-2.745763958E-1,1.346071903E1
3.306116274E0,1.114457130E1,-7.655237675E0,-2.219343036E-1,1.352232925E1
3.308291057E0,1.113500023E1,-7.712665558E0,-2.739782035E-1,1.354800739E1
3.310483124E0,1.112064362E1,-7.799405575E0,-3.840480447E-1,1.358848537E1
3.312684022E0,1.108235836E1,-7.900502205E0,-5.084748268E-1,1.361966037E1
3.314886242E0,1.107278633E1,-7.967501163E0,-5.557330847E-1,1.365271076E1
3.317109742E0,1.103450203E1,-8.020143509E0,-5.078766346E-1,1.365067308E1
3.319303641E0,1.101535892E1,-8.029116631E0,-4.701896608E-1,1.363913210E1
3.321502259E0,1.097707367E1,-8.057829857E0,-4.175475538E-1,1.362347659E1
3.323691071E0,1.097228813E1,-8.100302696E0,-3.601198196E-1,1.364315568E1
3.325880565E0,1.098126125E1,-8.157731056E0,-3.068794906E-1,1.368323243E1
3.328058168E0,1.100518990E1,-8.190631866E0,-2.925225794E-1,1.372174276E1
3.330280214E0,1.102911758E1,-8.238488197E0,-2.488535494E-1,1.376866190E1
3.332477163E0,1.107697392E1,-8.319844246E0,-2.099701911E-1,1.385508018E1
3.334675721E0,1.110987568E1,-8.444271088E0,-2.045863420E-1,1.395624976E1
3.336874187E0,1.118166065E1,-8.587242126E0,-1.651047617E-1,1.409955751E1
3.339058055E0,1.120020485E1,-8.784649849E0,-3.266202807E-1,1.423802453E1
3.341233775E0,1.114277649E1,-9.068199158E0,-6.131607890E-1,1.437948782E1
3.343457052E0,1.102313614E1,-9.336195946E0,-7.896314859E-1,1.446712145E1
3.345645834E0,1.087956619E1,-9.566504478E0,-9.810572863E-1,1.452051796E1
3.347830851E0,1.075095177E1,-9.768099785E0,-1.167697430E0,1.457265434E1
3.350044963E0,1.065045357E1,-9.887741089E0,-1.240080357E0,1.458551968E1
3.352243521E0,1.057866859E1,-9.997811317E0,-1.211366415E0,1.460588474E1
3.354446747E0,1.053978539E1,-1.004985523E1,-1.115653515E0,1.460586693E1
3.356630372E0,1.035852909E1,-1.007258701E1,-1.016351461E0,1.448409833E1
3.358829092E0,1.011446095E1,-1.029392338E1,-1.295115232E0,1.448946176E1
3.361024069E0,1.025264645E1,-1.037527943E1,-1.235892892E0,1.463866844E1
3.363222117E0,1.018624592E1,-1.033699417E1,-1.361516118E0,1.457624027E1
3.365414938E0,1.011924744E1,-1.042433167E1,-1.519442320E0,1.460734624E1
3.367604320E0,1.014317513E1,-1.059661484E1,-1.604387641E0,1.475622944E1
3.369810752E0,1.014257717E1,-1.070608711E1,-1.445863128E0,1.481832288E1
3.372006267E0,1.035733318E1,-1.074377346E1,-1.281356573E0,1.497814720E1
3.374206707E0,1.066301632E1,-1.062772179E1,-9.403793216E-1,1.508418711E1
3.376398083E0,1.085444164E1,-1.051226807E1,-7.764709592E-1,1.513041937E1
3.378588045E0,1.103569794E1,-1.052542877E1,-4.259224236E-1,1.525623445E1
3.380764782E0,1.092502975E1,-1.061994553E1,-2.494517565E-1,1.523816735E1
3.382986736E0,1.070967579E1,-1.079162979E1,-2.165504545E-1,1.520537152E1
3.385176932E0,1.055234814E1,-1.088674450E1,-2.123630047E-1,1.516305889E1
3.387361247E0,1.048534870E1,-1.087238789E1,-1.986042857E-1,1.510598555E1
3.389575441E0,1.044227791E1,-1.081017494E1,-2.566302419E-1,1.503219576E1
3.391772859E0,1.042313576E1,-1.076710415E1,-2.763710022E-1,1.498828448E1
3.393973970E0,1.040399265E1,-1.074796104E1,-2.428714931E-1,1.496063890E1
3.396163860E0,1.040399265E1,-1.072343445E1,-1.854437590E-1,1.494220529E1
3.398358948E0,1.038963604E1,-1.069950676E1,-1.381855011E-1,1.491452571E1
3.400553132E0,1.036630630E1,-1.065643597E1,-1.477568001E-1,1.486747342E1
3.402751893E0,1.033759212E1,-1.061815071E1,-1.674975902E-1,1.482022236E1
3.404948833E0,1.031366348E1,-1.056072235E1,-1.633101404E-1,1.476235690E1
3.407145143E0,1.029452133E1,-1.046979523E1,-1.112662554E-1,1.468353369E1
3.409341514E0,1.028495026E1,-1.034477043E1,-3.050848842E-2,1.458750862E1
3.411530029E0,1.030887794E1,-1.023470020E1,7.477571070E-2,1.452679057E1
3.413707103E0,1.029930687E1,-1.015274620E1,1.986042857E-1,1.446352036E1
3.415928610E0,1.031366348E1,-1.008036327E1,2.416750938E-1,1.442372299E1
3.418126060E0,1.029452133E1,-1.005643559E1,2.889333367E-1,1.439418454E1
3.420333050E0,1.028554821E1,-1.001336479E1,2.985046208E-1,1.435789265E1
3.422518250E0,1.027597713E1,-9.984650612E0,3.176472187E-1,1.433142888E1
3.424713563E0,1.025204849E1,-9.974481583E0,3.649054468E-1,1.430831706E1
3.426909383E0,1.019940662E1,-9.940981865E0,3.882354796E-1,1.424786801E1
3.429105622E0,1.012762165E1,-9.869196892E0,3.924229145E-1,1.414651064E1
3.431296571E0,1.006062317E1,-9.815957069E0,4.492524564E-1,1.406310704E1
3.433468629E0,9.999007225E0,-9.768099785E0,4.384847581E-1,1.398528469E1
3.435673432E0,9.922437668E0,-9.715457916E0,4.618147612E-1,1.389453722E1
3.437890433E0,9.869794846E0,-9.686744690E0,4.372883439E-1,1.383607943E1
3.440093700E0,9.821938515E0,-9.681958199E0,4.372883439E-1,1.379862355E1
3.442288901E0,9.778867722E0,-9.672387123E0,4.175475538E-1,1.376065669E1
3.444485485E0,9.754940033E0,-9.643673897E0,4.169493318E-1,1.372345248E1
3.446692781E0,9.736394882E0,-9.610174179E0,4.073780477E-1,1.368644548E1
3.448870597E0,9.726823807E0,-9.547960281E0,3.828516304E-1,1.363529326E1
3.451066407E0,9.731609344E0,-9.528818130E0,3.541377485E-1,1.362453702E1
3.453258515E0,9.722038269E0,-9.552745819E0,3.110669553E-1,1.363340542E1
3.455459962E0,9.736394882E0,-9.586843491E0,2.781656384E-1,1.366683319E1
3.457656689E0,9.736394882E0,-9.591629982E0,2.638086975E-1,1.366990658E1
3.459852235E0,9.731609344E0,-9.572486877E0,2.877369225E-1,1.365355331E1
3.462049235E0,9.688538551E0,-9.505488396E0,2.919243574E-1,1.357598279E1
3.464244436E0,9.655637741E0,-9.419346809E0,3.008974493E-1,1.349244136E1
3.466433798E0,9.579067230E0,-9.346963882E0,3.188436031E-1,1.338752868E1
3.468604248E0,9.483354568E0,-9.265607834E0,3.224328458E-1,1.326233258E1
3.470831565E0,9.354740143E0,-9.212965012E0,3.116651475E-1,1.313343149E1
3.473022015E0,9.235098839E0,-9.160323143E0,3.014956415E-1,1.301112871E1
3.475234651E0,9.087342262E0,-9.116654396E0,2.662015259E-1,1.287493845E1
3.477411022E0,8.943773270E0,-9.097511292E0,2.267199457E-1,1.275959223E1
3.479600729E0,8.805587769E0,-9.092725754E0,1.639083475E-1,1.265870860E1
3.481807882E0,8.666803360E0,-9.083154678E0,1.292124242E-1,1.255523298E1
3.484009562E0,8.533403397E0,-9.098110199E0,4.666004330E-2,1.247384303E1
3.486209515E0,8.394619942E0,-9.117252350E0,-4.007977992E-2,1.239336681E1
3.488401409E0,8.270193100E0,-9.122037888E0,-9.870393574E-2,1.231330222E1
3.490598125E0,8.184649467E0,-9.122037888E0,-1.280160099E-1,1.225628207E1
3.492795014E0,8.088936806E0,-9.136395454E0,-1.477568001E-1,1.220354263E1
3.494990357E0,8.012366295E0,-9.126823425E0,-2.057827413E-1,1.214657425E1
3.497187084E0,7.922037601E0,-9.122037888E0,-2.733799815E-1,1.208490760E1
3.499375825E0,7.845467091E0,-9.117252350E0,-2.979064286E-1,1.203180753E1
3.501553254E0,7.773682594E0,-9.079565048E0,-3.463610709E-1,1.195778443E1
3.503774537E0,7.683353424E0,-9.036494255E0,-3.810569942E-1,1.186749142E1
3.505964458E0,7.601997375E0,-8.979066849E0,-4.103690982E-1,1.177210297E1
3.508147055E0,7.515855789E0,-8.916853905E0,-4.211367965E-1,1.166943563E1
3.510360057E0,7.435098171E0,-8.849854469E0,-4.504488707E-1,1.156734685E1
3.512554089E0,7.363313675E0,-8.787641525E0,-4.851447940E-1,1.147503365E1
3.514735871E0,7.268198967E0,-8.734998703E0,-5.096712112E-1,1.137482674E1
3.516931356E0,7.177271366E0,-8.677571297E0,-5.204389095E-1,1.127316834E1
3.519147859E0,7.115057945E0,-8.605786324E0,-5.306084156E-1,1.117878138E1
3.521348899E0,7.029514790E0,-8.543573380E0,-5.359922647E-1,1.107673291E1
3.523545198E0,6.957729816E0,-8.480761528E0,-5.371887088E-1,1.098279983E1
3.525736603E0,6.890730858E0,-8.428119659E0,-5.330012441E-1,1.089951664E1
3.527933462E0,6.838686943E0,-8.385048866E0,-5.335994363E-1,1.083334722E1
3.530129081E0,6.781259537E0,-8.322834969E0,-5.006981492E-1,1.074736067E1
3.532331645E0,6.719046116E0,-8.294121742E0,-5.300102234E-1,1.068732647E1
3.534544231E0,6.685546398E0,-8.241478920E0,-5.258227587E-1,1.062520565E1
3.536717083E0,6.628716946E0,-8.207980156E0,-5.455635786E-1,1.056449082E1
3.538906649E0,6.571289062E0,-8.179265976E0,-5.509474277E-1,1.050646348E1
3.541077902E0,6.513861656E0,-8.183453560E0,-5.324030519E-1,1.047295368E1
3.543305899E0,6.461219311E0,-8.145168304E0,-5.371887088E-1,1.041055682E1
3.545496339E0,6.394220352E0,-8.116454124E0,-5.377869010E-1,1.034659829E1
3.547678967E0,6.342176437E0,-8.082955360E0,-5.383850932E-1,1.028820819E1
3.549895224E0,6.256034851E0,-8.059026718E0,-5.108676553E-1,1.021503154E1
3.552091188E0,6.212964058E0,-8.020143509E0,-5.108676553E-1,1.015798258E1
3.554287528E0,6.165107727E0,-7.981858253E0,-5.114658475E-1,1.009852523E1
3.556483867E0,6.102894306E0,-7.953144073E0,-5.168496966E-1,1.003817479E1
3.558680207E0,6.065207005E0,-7.895716667E0,-4.887340367E-1,9.968346837E0
3.560855785E0,6.012565136E0,-7.852645874E0,-4.989035130E-1,9.902721416E0
3.563085115E0,5.955137253E0,-7.795217991E0,-4.851447940E-1,9.821631672E0
3.565267396E0,5.921638012E0,-7.747361660E0,-4.857429862E-1,9.763368050E0
3.567444998E0,5.888138294E0,-7.718647480E0,-4.767699242E-1,9.719825155E0
3.569659028E0,5.850451469E0,-7.665407181E0,-4.725824594E-1,9.654511061E0
3.571855652E0,5.816951752E0,-7.636693478E0,-4.677968323E-1,9.611183529E0
3.574057730E0,5.788238049E0,-7.564908981E0,-4.588237405E-1,9.536355007E0
3.576247509E0,5.749952793E0,-7.540980339E0,-4.067798555E-1,9.491775990E0
3.578441865E0,5.702096462E0,-7.482954502E0,-3.738785386E-1,9.415322475E0
3.580632599E0,5.682953835E0,-7.435098171E0,-3.499503136E-1,9.364780527E0
3.582836732E0,5.663811207E0,-7.368099213E0,-3.361915946E-1,9.299498276E0
3.585028322E0,5.630909920E0,-7.305885792E0,-3.272185028E-1,9.229852961E0
3.587205741E0,5.616552830E0,-7.258029461E0,-2.943171859E-1,9.182117400E0
3.589424622E0,5.602196217E0,-7.205387115E0,-2.991028428E-1,9.131903878E0
3.591620637E0,5.587839127E0,-7.167101860E0,-2.997010350E-1,9.092915698E0
3.593823285E0,5.559125423E0,-7.114459991E0,-2.853440940E-1,9.033318200E0
3.596013388E0,5.520840168E0,-7.066005230E0,-2.572284341E-1,8.970745372E0
3.598210440E0,5.511867046E0,-7.008577347E0,-2.673979402E-1,8.920332753E0
3.600400290E0,5.478367329E0,-6.960721016E0,-2.434697002E-1,8.861344319E0
3.602581932E0,5.440082073E0,-6.912864685E0,-2.297109663E-1,8.799713532E0
3.604797914E0,5.420939922E0,-6.850651264E0,-2.255235314E-1,8.738928610E0
3.606993521E0,5.401797295E0,-6.798008919E0,-2.255235314E-1,8.685804519E0
3.609194755E0,5.354538918E0,-6.750152588E0,-1.878365725E-1,8.618058340E0
3.611391522E0,5.330610752E0,-6.706483841E0,-1.740778536E-1,8.568701162E0
3.613604564E0,5.306682587E0,-6.663413048E0,-1.842473447E-1,8.520322799E0
3.615779685E0,5.268397331E0,-6.620342255E0,-1.746760458E-1,8.462591431E0
3.617968202E0,5.249254704E0,-6.586842537E0,-1.561316848E-1,8.424105095E0
3.620140515E0,5.215754986E0,-6.562914371E0,-1.615155339E-1,8.384630725E0
3.622366823E0,5.196612358E0,-6.534200668E0,-1.423729509E-1,8.349899905E0
3.624563082E0,5.173282623E0,-6.491129398E0,-1.286142170E-1,8.301455028E0
3.626765139E0,5.125426292E0,-6.471987247E0,-1.381855011E-1,8.256858291E0
3.628955160E0,5.091926575E0,-6.448058605E0,-1.244267747E-1,8.217095475E0
3.631152426E0,5.063212872E0,-6.424130440E0,-1.292124242E-1,8.180603422E0
3.633342449E0,5.039284706E0,-6.394818306E0,-1.250249892E-1,8.142709792E0
3.635518607E0,5.005784988E0,-6.409175396E0,-1.298106313E-1,8.133404171E0
3.637740622E0,5.000999451E0,-6.375676155E0,-1.304088384E-1,8.104088376E0
